timestamp(unix),attitude_roll(radians),attitude_pitch(radians),attitude_yaw(radians),rotation_rate_x(radians/s),rotation_rate_y(radians/s),rotation_rate_z(radians/s),gravity_x(G),gravity_y(G),gravity_z(G),user_acc_x(G),user_acc_y(G),user_acc_z(G),magnetic_field_x(microteslas),magnetic_field_y(microteslas),magnetic_field_z(microteslas),latitude(degree),longitude(degree),altitude(meter),speed(m/s),course(degree),timestamp(unix),User Mark
1528191366.629259,0.222282,0.414978,3.029861,0.081549,0.027636,-0.031894,0.201745,-0.403170,-0.892610,-0.009743,-0.008558,0.022951,-7.865158,-20.561232,-44.534790,,,,,,,
,,,,,,,,,,,,,,,,52.333474,4.864636,-0.879812,-1.000000,-1.000000,1528191218.050151,
,,,,,,,,,,,,,,,,52.333474,4.864636,-0.879812,-1.000000,-1.000000,1528191227.050151,
1528191366.649412,0.223803,0.415335,3.028903,-0.016314,0.054068,-0.040563,0.203071,-0.403496,-0.892162,-0.014365,-0.014244,0.033184,-7.769333,-20.615820,-44.690002,,,,,,,
,,,,,,,,,,,,,,,,52.336613,4.866737,-0.879812,-1.000000,-1.000000,1528191366.646678,
1528191366.669565,0.224085,0.413358,3.028554,-0.127022,-0.025182,-0.037478,0.203498,-0.401687,-0.892881,-0.004219,-0.010361,0.021634,-7.822998,-20.817045,-44.775787,,,,,,,
,,,,,,,,,,,,,,,,52.336809,4.866868,-0.879812,-1.000000,-1.000000,1528191366.651943,
1528191366.689717,0.223504,0.410418,3.028388,-0.140778,-0.027395,-0.041772,0.203241,-0.398992,-0.894147,0.000586,0.000616,0.015378,-7.902573,-20.467800,-44.635895,,,,,,,
1528191366.709870,0.223724,0.407371,3.028067,-0.152921,0.024273,-0.048201,0.203706,-0.396197,-0.895283,-0.000948,0.006350,0.001637,-7.861557,-20.453857,-44.870087,,,,,,,
1528191366.730023,0.223929,0.404199,3.028029,-0.145289,-0.003791,-0.028969,0.204168,-0.393283,-0.896462,0.020060,0.012195,-0.027244,-7.704575,-20.316114,-44.897980,,,,,,,
1528191366.750176,0.224038,0.402342,3.028132,-0.054352,0.024612,-0.008572,0.204427,-0.391574,-0.897151,0.022196,0.016803,-0.037496,-7.881668,-20.207708,-44.957489,,,,,,,
1528191366.770329,0.225175,0.402724,3.028183,0.052362,0.065984,0.019311,0.205414,-0.391926,-0.896772,0.020477,0.017139,-0.035311,-7.780777,-20.509102,-45.289825,,,,,,,
1528191366.790481,0.226002,0.405085,3.028546,0.142702,0.040445,0.054659,0.205947,-0.394097,-0.895697,0.015702,0.009484,-0.024133,-7.707626,-20.383698,-44.759644,,,,,,,
1528191366.810634,0.226202,0.408829,3.029048,0.193885,0.009410,0.070745,0.205794,-0.397535,-0.894211,0.004731,0.005705,-0.008804,-7.899841,-20.432749,-44.782043,,,,,,,
1528191366.830787,0.226155,0.413229,3.029588,0.211929,0.009525,0.068638,0.205359,-0.401569,-0.892508,-0.007773,-0.001446,0.014288,-7.549896,-20.396881,-44.718781,,,,,,,
1528191366.850940,0.226147,0.417050,3.029626,0.164507,-0.012066,0.028011,0.205006,-0.405065,-0.891008,-0.012074,-0.004557,0.025941,-7.843338,-20.557598,-44.646973,,,,,,,
1528191366.871093,0.225709,0.419397,3.029385,0.089377,-0.029628,0.010835,0.204402,-0.407210,-0.890169,-0.005870,-0.007478,0.030351,-7.677887,-20.738689,-44.567902,,,,,,,
1528191366.891245,0.225145,0.420314,3.029276,0.020423,-0.032126,0.005421,0.203817,-0.408047,-0.889919,-0.008306,-0.002033,0.023785,-7.955643,-20.939867,-44.544250,,,,,,,
1528191366.911398,0.224198,0.420101,3.029476,-0.028261,-0.046408,0.006423,0.202993,-0.407853,-0.890197,-0.004873,-0.003631,0.005797,-7.856262,-20.914240,-44.501587,,,,,,,
1528191366.931551,0.223418,0.419676,3.029600,-0.007195,-0.025780,-0.003167,0.202336,-0.407465,-0.890524,-0.008657,0.001001,-0.010538,-7.915451,-20.944746,-44.686432,,,,,,,
1528191366.951704,0.223218,0.420535,3.029330,0.074378,-0.011351,0.001202,0.202081,-0.408249,-0.890222,0.001151,0.003266,-0.017935,-7.691315,-20.840511,-44.652588,,,,,,,
1528191366.971857,0.222834,0.422631,3.028951,0.119125,-0.032679,0.008743,0.201550,-0.410161,-0.889464,0.002826,0.006108,-0.015978,-7.850815,-21.078403,-44.551025,,,,,,,
1528191366.992009,0.222395,0.425219,3.028722,0.127524,-0.027314,0.021564,0.200924,-0.412520,-0.888514,0.009906,0.005782,-0.011251,-7.788010,-21.072437,-44.444550,,,,,,,
1528191367.012162,0.222142,0.427987,3.028796,0.138805,0.008195,0.039719,0.200447,-0.415040,-0.887447,0.001167,0.003663,0.002727,-7.594177,-21.177282,-44.304932,,,,,,,
1528191367.032315,0.222491,0.431055,3.028965,0.149241,0.026549,0.041860,0.200475,-0.417829,-0.886131,-0.003774,-0.000292,0.007774,-7.563538,-21.185457,-44.260956,,,,,,,
1528191367.052468,0.222801,0.433546,3.028786,0.099756,-0.002609,0.004437,0.200519,-0.420091,-0.885051,-0.006763,-0.004072,0.006725,-7.632019,-21.563084,-44.256500,,,,,,,
,,,,,,,,,,,,,,,,52.333565,4.864727,-0.588045,-1.000000,-1.000000,1528191367.013601,
1528191367.072621,0.222752,0.434686,3.028110,0.043748,-0.020012,-0.021246,0.200370,-0.421126,-0.884593,0.001458,-0.000520,0.003993,-7.774033,-21.541979,-44.297089,,,,,,,
1528191367.092773,0.222732,0.435580,3.027857,0.055106,0.002483,0.012919,0.200269,-0.421936,-0.884230,0.001513,0.008438,0.000349,-7.717377,-21.530762,-44.243103,,,,,,,
1528191367.112926,0.222676,0.437332,3.028205,0.095345,0.000390,0.045007,0.200056,-0.423524,-0.883518,0.006945,0.006166,0.002430,-8.035385,-21.529781,-43.943268,,,,,,,
1528191367.133079,0.222361,0.439315,3.028646,0.080581,-0.005012,0.032175,0.199592,-0.425320,-0.882761,-0.002738,0.003780,0.016351,-7.922867,-21.502893,-44.042023,,,,,,,
1528191367.153232,0.222170,0.440186,3.028787,0.014947,-0.014951,0.009674,0.199342,-0.426108,-0.882437,0.002090,-0.004266,0.015341,-7.862259,-21.671923,-43.951782,,,,,,,
1528191367.173385,0.221457,0.440001,3.029023,-0.014592,-0.033419,0.008572,0.198730,-0.425941,-0.882656,-0.002060,-0.001641,0.004054,-7.948883,-21.828316,-44.058319,,,,,,,
1528191367.193537,0.220852,0.439949,3.029283,0.003340,-0.022560,0.010729,0.198200,-0.425894,-0.882797,-0.002460,0.000723,-0.004898,-7.811737,-21.720303,-43.878998,,,,,,,
1528191367.213690,0.220595,0.440278,3.029462,0.016955,-0.004174,0.011817,0.197943,-0.426191,-0.882711,-0.004003,0.002546,-0.003351,-7.967697,-21.715313,-43.921509,,,,,,,
1528191367.233843,0.220574,0.440568,3.029589,0.008427,0.001169,0.009662,0.197897,-0.426453,-0.882595,-0.001456,0.000245,-0.001453,-7.909668,-21.658381,-44.138428,,,,,,,
1528191367.253996,0.220639,0.440811,3.029725,0.010496,0.005474,0.012870,0.197932,-0.426673,-0.882481,0.000844,-0.000360,0.002782,-7.641037,-21.882561,-43.975922,,,,,,,
1528191367.274149,0.220352,0.441275,3.030056,0.027619,-0.012793,0.022502,0.197635,-0.427093,-0.882344,0.001278,0.001587,-0.001475,-7.845688,-21.702291,-44.085449,,,,,,,
1528191367.294301,0.219925,0.442128,3.030369,0.041435,-0.014870,0.022521,0.197179,-0.427864,-0.882073,0.003245,0.004585,0.003182,-7.807312,-21.764643,-44.348511,,,,,,,
1528191367.314454,0.219530,0.442888,3.030647,0.026540,-0.010638,0.021434,0.196760,-0.428551,-0.881833,0.003496,0.005348,0.008161,-7.807388,-21.996538,-44.156158,,,,,,,
1528191367.334607,0.219174,0.443136,3.031115,-0.003272,-0.001122,0.023528,0.196423,-0.428774,-0.881800,-0.001461,0.003420,0.004297,-7.877121,-21.970266,-43.960449,,,,,,,
1528191367.354760,0.219043,0.442876,3.031808,-0.026742,0.009477,0.030966,0.196332,-0.428540,-0.881934,0.000720,-0.001621,0.002433,-7.759476,-22.105873,-44.223053,,,,,,,
1528191367.374912,0.218953,0.442407,3.032664,-0.028955,0.018081,0.032036,0.196296,-0.428116,-0.882148,-0.002768,-0.002258,0.000800,-7.763123,-22.041950,-44.286102,,,,,,,
1528191367.395065,0.219151,0.441998,3.033288,-0.022562,0.020342,0.018163,0.196509,-0.427747,-0.882280,-0.002539,-0.003619,0.004182,-7.492340,-22.043161,-44.053162,,,,,,,
1528191367.415218,0.219007,0.441791,3.033663,-0.007402,-0.009706,0.012848,0.196401,-0.427559,-0.882394,0.002528,-0.002113,0.005563,-7.828491,-22.106123,-44.123566,,,,,,,
1528191367.435371,0.218082,0.441928,3.034092,0.007857,-0.057084,0.026758,0.195572,-0.427683,-0.882518,0.007034,0.002589,-0.001210,-7.639206,-22.114061,-44.506653,,,,,,,
1528191367.455524,0.216792,0.442605,3.034583,0.039484,-0.036463,0.031069,0.194371,-0.428295,-0.882487,-0.002599,0.004757,0.000056,-7.679047,-21.928301,-44.169342,,,,,,,
1528191367.475676,0.216372,0.443584,3.034869,0.042425,-0.005136,0.016116,0.193910,-0.429180,-0.882159,-0.006410,0.002941,-0.009397,-7.574631,-21.824854,-44.183441,,,,,,,
1528191367.495829,0.216227,0.444374,3.034965,0.037132,-0.005153,0.012902,0.193709,-0.429893,-0.881855,-0.000045,-0.000832,-0.009655,-7.551727,-21.995985,-44.233246,,,,,,,
1528191367.515982,0.216217,0.445199,3.035109,0.042269,0.011004,0.018244,0.193624,-0.430638,-0.881510,0.001307,0.000981,-0.000280,-7.710907,-22.029156,-44.138519,,,,,,,
1528191367.536135,0.216168,0.446270,3.035513,0.047615,0.001256,0.034267,0.193482,-0.431604,-0.881069,-0.003449,-0.000907,0.001995,-7.877151,-22.113741,-44.065094,,,,,,,
1528191367.556288,0.215886,0.447215,3.035960,0.040280,-0.005180,0.022521,0.193146,-0.432456,-0.880725,-0.006592,0.000205,0.002582,-7.538986,-22.073364,-44.149475,,,,,,,
1528191367.576440,0.215805,0.448005,3.035990,0.038199,-0.001861,0.002224,0.193002,-0.433168,-0.880406,-0.005440,-0.000746,0.006047,-7.701813,-21.972906,-44.115540,,,,,,,
1528191367.596593,0.215757,0.448723,3.035794,0.030912,-0.015876,-0.002047,0.192893,-0.433815,-0.880112,0.001000,0.000450,0.002762,-7.816208,-22.123436,-44.005951,,,,,,,
1528191367.616746,0.215211,0.449268,3.035682,0.026788,-0.031012,0.004356,0.192361,-0.434306,-0.879986,0.004859,0.001338,-0.001057,-8.038223,-22.030935,-43.955811,,,,,,,
1528191367.636899,0.214967,0.450071,3.035818,0.045472,0.007784,0.020389,0.192072,-0.435029,-0.879692,0.002188,0.002412,-0.000588,-7.743408,-22.016317,-43.993408,,,,,,,
1528191367.657051,0.214841,0.451229,3.036146,0.057309,-0.012666,0.030015,0.191854,-0.436072,-0.879223,0.002634,0.005331,-0.007892,-7.659241,-22.099720,-44.004761,,,,,,,
1528191367.677204,0.214285,0.452553,3.036527,0.064792,-0.018005,0.028957,0.191242,-0.437263,-0.878765,-0.001819,0.001182,0.004116,-7.683975,-22.279484,-43.996887,,,,,,,
1528191367.697357,0.213741,0.453936,3.036649,0.070231,-0.026507,0.012952,0.190636,-0.438506,-0.878277,-0.007698,-0.000611,0.000088,-7.999100,-22.238476,-43.864685,,,,,,,
1528191367.717510,0.213465,0.455439,3.036426,0.079702,-0.014557,0.003352,0.190253,-0.439857,-0.877684,-0.005667,-0.002190,-0.000520,-7.551620,-22.591570,-44.140991,,,,,,,
1528191367.737663,0.213159,0.456982,3.036140,0.074425,-0.018910,0.006551,0.189841,-0.441242,-0.877078,-0.003180,-0.002194,-0.001355,-7.760468,-22.414843,-43.901184,,,,,,,
1528191367.757815,0.213009,0.458114,3.035999,0.044530,-0.000777,0.008644,0.189604,-0.442258,-0.876618,-0.001585,-0.002094,0.004349,-7.953995,-22.459394,-43.766541,,,,,,,
1528191367.777968,0.213278,0.458669,3.036137,0.017740,0.025988,0.010738,0.189788,-0.442755,-0.876327,-0.005324,0.000189,0.008636,-7.861877,-22.569950,-43.968811,,,,,,,
1528191367.798121,0.213767,0.458954,3.036226,0.011437,0.021685,0.003258,0.190189,-0.443011,-0.876110,-0.001484,-0.003431,0.008114,-8.024734,-22.582993,-43.640564,,,,,,,
1528191367.818274,0.213787,0.459282,3.036016,0.023499,-0.013709,-0.012736,0.190176,-0.443304,-0.875965,0.002527,0.000738,0.001285,-7.938828,-22.871056,-43.859436,,,,,,,
1528191367.838427,0.213777,0.459751,3.035451,0.025622,-0.011501,-0.020203,0.190123,-0.443725,-0.875763,-0.001723,0.004272,-0.000366,-7.887589,-22.776049,-43.574249,,,,,,,
1528191367.858579,0.213935,0.459954,3.035066,0.002040,0.009850,-0.009566,0.190242,-0.443907,-0.875645,0.001256,0.000563,0.000172,-7.916779,-22.432251,-43.936707,,,,,,,
1528191367.878732,0.214148,0.459814,3.035253,-0.015025,0.010718,0.012837,0.190442,-0.443781,-0.875665,0.002963,0.000849,0.002252,-7.837250,-22.512634,-43.769531,,,,,,,
1528191367.898885,0.214062,0.459822,3.035682,0.008336,0.006485,0.022471,0.190366,-0.443788,-0.875678,0.002535,0.002458,0.001716,-8.135849,-22.603966,-43.820618,,,,,,,
1528191367.919038,0.214178,0.460440,3.035819,0.034958,0.002410,0.006494,0.190409,-0.444342,-0.875388,0.000142,0.003485,-0.000253,-7.933075,-22.598776,-43.604462,,,,,,,
1528191367.939190,0.213803,0.461231,3.035571,0.041682,-0.031960,-0.004164,0.190006,-0.445051,-0.875115,0.004894,0.004133,0.002893,-7.588074,-22.590820,-43.701904,,,,,,,
1528191367.959343,0.213464,0.461792,3.035593,0.014807,-0.002054,0.015010,0.189657,-0.445553,-0.874936,0.005458,0.002789,0.014279,-7.765488,-22.602390,-43.758820,,,,,,,
1528191367.979496,0.213348,0.461677,3.036075,-0.026690,0.006296,0.022432,0.189566,-0.445450,-0.875008,-0.001928,-0.002014,0.004708,-7.894104,-22.598312,-43.795898,,,,,,,
1528191367.999649,0.212969,0.461159,3.036694,-0.021190,-0.011951,0.016036,0.189284,-0.444987,-0.875305,-0.005018,-0.002249,-0.007309,-8.133514,-22.454596,-43.593994,,,,,,,
1528191368.019802,0.212717,0.461566,3.036750,0.047801,-0.007184,0.001174,0.189025,-0.445351,-0.875175,-0.004546,-0.000984,-0.007195,-7.886154,-22.569937,-43.716888,,,,,,,
1528191368.039954,0.212571,0.462993,3.036328,0.080916,-0.028519,-0.003050,0.188762,-0.446628,-0.874581,-0.001949,0.001697,-0.005164,-7.913559,-22.548931,-43.472992,,,,,,,
1528191368.060107,0.212091,0.464427,3.036063,0.057472,-0.022241,0.007598,0.188207,-0.447911,-0.874045,-0.004018,0.003987,0.011252,-7.746796,-22.598019,-43.674622,,,,,,,
1528191368.080260,0.212296,0.464596,3.036055,-0.027895,0.030113,-0.002130,0.188370,-0.448062,-0.873932,-0.009431,-0.001080,0.021362,-8.130249,-22.611061,-43.600159,,,,,,,
1528191368.100413,0.212855,0.463040,3.036354,-0.099001,0.029731,-0.003281,0.189006,-0.446670,-0.874507,-0.003124,-0.003663,0.004283,-7.987061,-22.608252,-43.463318,,,,,,,
1528191368.120565,0.213094,0.461504,3.036726,-0.049055,0.021350,0.003181,0.189360,-0.445295,-0.875131,0.004061,-0.001406,-0.012076,-7.875488,-22.730761,-43.624329,,,,,,,
1528191368.140718,0.213513,0.461809,3.036832,0.048669,0.010004,0.010781,0.189698,-0.445568,-0.874919,0.007659,0.001827,-0.014745,-7.759445,-22.581987,-43.596863,,,,,,,
1528191368.160871,0.212851,0.463534,3.036819,0.097964,-0.043629,0.020462,0.188956,-0.447112,-0.874292,0.004190,0.001937,-0.006552,-7.735809,-22.554117,-43.463562,,,,,,,
1528191368.181024,0.212568,0.465406,3.036584,0.081693,-0.000553,0.004416,0.188532,-0.448786,-0.873526,-0.003886,0.004556,0.004599,-7.817780,-22.718002,-43.518066,,,,,,,
1528191368.201177,0.212749,0.466433,3.036419,0.032850,0.001326,0.005422,0.188592,-0.449704,-0.873040,-0.002587,0.001889,0.007592,-7.848068,-22.637970,-43.366791,,,,,,,
1528191368.221329,0.212585,0.466687,3.036481,0.004211,-0.000990,0.006456,0.188425,-0.449930,-0.872960,0.001166,-0.004003,0.007390,-7.951050,-22.836809,-43.370270,,,,,,,
1528191368.241482,0.212801,0.466703,3.036557,-0.002277,0.012991,0.003241,0.188612,-0.449945,-0.872912,-0.003279,-0.002707,0.005633,-8.040878,-22.737537,-43.559143,,,,,,,
1528191368.261635,0.212723,0.466661,3.036545,0.000132,-0.014967,-0.003158,0.188548,-0.449907,-0.872945,-0.005717,-0.002883,-0.001658,-8.034515,-23.057730,-43.639526,,,,,,,
1528191368.281788,0.212363,0.466946,3.036335,0.027884,-0.030959,-0.005255,0.188207,-0.450161,-0.872888,-0.000692,0.002682,-0.007315,-8.323883,-22.871338,-43.424377,,,,,,,
1528191368.301941,0.211761,0.468222,3.035949,0.089458,-0.034943,-0.000899,0.187561,-0.451300,-0.872439,0.001480,0.004233,-0.007383,-8.050446,-22.943430,-43.432007,,,,,,,
1528191368.322093,0.211603,0.470159,3.035357,0.093472,-0.007963,-0.007308,0.187239,-0.453028,-0.871612,-0.000197,0.002115,-0.004319,-8.271622,-23.001493,-43.538483,,,,,,,
1528191368.342246,0.212153,0.471402,3.034960,0.039995,0.032626,0.001158,0.187600,-0.454136,-0.870958,0.001258,-0.000485,0.007524,-8.106506,-22.962856,-43.555908,,,,,,,
1528191368.362399,0.212773,0.471456,3.035122,-0.016292,0.032247,0.013898,0.188134,-0.454184,-0.870817,-0.000894,-0.002633,0.008009,-8.391708,-23.161983,-43.548004,,,,,,,
1528191368.382552,0.213186,0.471338,3.035477,0.000782,0.021569,0.014994,0.188505,-0.454078,-0.870792,-0.000822,-0.001747,0.005664,-8.310059,-23.230637,-43.342590,,,,,,,
1528191368.402704,0.213186,0.471872,3.035418,0.039404,-0.015832,-0.002040,0.188454,-0.454554,-0.870555,-0.002602,0.001063,-0.000249,-7.960617,-23.197254,-43.301941,,,,,,,
1528191368.422857,0.212602,0.472918,3.034910,0.062034,-0.047949,-0.014813,0.187845,-0.455486,-0.870199,-0.004266,0.001461,-0.005304,-7.923508,-23.131529,-43.372498,,,,,,,
1528191368.443010,0.212212,0.474275,3.034391,0.075569,-0.024250,-0.001994,0.187375,-0.456694,-0.869668,-0.000363,0.000791,-0.004539,-8.117233,-22.966335,-43.443970,,,,,,,
1528191368.463163,0.211826,0.475879,3.034344,0.082823,-0.014649,0.023639,0.186885,-0.458120,-0.869022,0.000051,0.001684,-0.005337,-8.345612,-23.090799,-43.604919,,,,,,,
1528191368.483316,0.211944,0.477630,3.034421,0.081392,0.027395,0.015089,0.186819,-0.459675,-0.868215,-0.002737,-0.002086,0.003698,-8.211884,-23.374813,-43.018066,,,,,,,
1528191368.503468,0.212964,0.478686,3.034104,0.033589,0.041264,-0.010601,0.187601,-0.460613,-0.867549,-0.003931,-0.002735,0.010570,-7.931519,-23.521013,-43.291809,,,,,,,
1528191368.523621,0.213557,0.478562,3.033781,-0.017028,0.007622,-0.014924,0.188128,-0.460503,-0.867493,-0.002154,-0.002723,0.014390,-7.883514,-23.329159,-43.437164,,,,,,,
1528191368.543774,0.213223,0.478182,3.033561,0.000366,-0.037533,-0.011687,0.187876,-0.460166,-0.867727,0.001486,0.002769,0.001287,-8.147278,-23.210285,-43.268555,,,,,,,
1528191368.563927,0.212541,0.479034,3.033285,0.070399,-0.040445,0.001214,0.187200,-0.460922,-0.867472,0.003916,0.003677,-0.006170,-8.348267,-23.681749,-43.048798,,,,,,,
1528191368.584079,0.211650,0.481012,3.032909,0.108707,-0.052108,0.005529,0.186236,-0.462676,-0.866745,0.005323,0.005691,-0.010559,-8.243378,-23.763962,-43.022736,,,,,,,
1528191368.604232,0.211202,0.482891,3.032495,0.080818,-0.018838,-0.000916,0.185664,-0.464342,-0.865977,-0.000453,0.005785,-0.004095,-8.155212,-23.627485,-43.315918,,,,,,,
1528191368.624385,0.211577,0.483852,3.032365,0.027213,0.034654,0.010745,0.185896,-0.465193,-0.865470,-0.002089,-0.002108,0.008445,-8.189453,-23.586468,-42.922058,,,,,,,
1528191368.644538,0.212092,0.484050,3.032567,0.000789,0.022665,0.010719,0.186322,-0.465367,-0.865284,-0.007825,-0.004008,0.006184,-8.055450,-23.752291,-42.980133,,,,,,,
1528191368.664691,0.212415,0.484229,3.032526,0.014780,0.007747,-0.005275,0.186584,-0.465526,-0.865143,-0.008987,-0.001393,0.007187,-7.763748,-23.649973,-42.748077,,,,,,,
1528191368.684843,0.212311,0.484667,3.032148,0.029976,-0.025529,-0.011660,0.186451,-0.465913,-0.864963,-0.004551,0.001253,0.003238,-7.724960,-23.907021,-42.933594,,,,,,,
1528191368.704996,0.211907,0.485349,3.031852,0.038409,-0.024466,0.001170,0.186034,-0.466517,-0.864727,-0.004348,0.006709,0.002987,-7.781357,-23.952646,-43.169617,,,,,,,
1528191368.725149,0.211652,0.486045,3.031793,0.029720,-0.005165,0.007555,0.185746,-0.467133,-0.864457,-0.003068,0.006485,-0.006271,-7.817291,-24.050611,-43.139008,,,,,,,
1528191368.745302,0.211864,0.486369,3.031799,0.008248,0.022749,0.002185,0.185897,-0.467419,-0.864269,0.003129,0.000424,-0.003864,-7.881119,-23.896139,-42.989777,,,,,,,
1528191368.765455,0.212707,0.486502,3.031648,0.010200,0.043264,-0.005289,0.186613,-0.467536,-0.864052,0.007021,-0.002053,0.002815,-7.909790,-23.985716,-42.944763,,,,,,,
1528191368.785607,0.213638,0.486689,3.031421,0.010294,0.034672,-0.009556,0.187399,-0.467702,-0.863792,0.001078,0.000661,0.003166,-7.765854,-23.903603,-43.089020,,,,,,,
1528191368.805760,0.213950,0.486810,3.031225,0.004262,-0.003094,-0.003152,0.187656,-0.467809,-0.863678,0.008388,-0.004420,0.004242,-7.671509,-23.762117,-42.863190,,,,,,,
1528191368.825913,0.213711,0.486891,3.031277,0.006369,-0.005282,0.006466,0.187441,-0.467880,-0.863686,0.008649,-0.007660,0.002190,-7.932922,-23.929161,-42.712952,,,,,,,
1528191368.846066,0.213793,0.487025,3.031325,0.006276,0.006592,0.001123,0.187499,-0.467999,-0.863609,0.000352,-0.002354,-0.004143,-7.830917,-23.916199,-42.832153,,,,,,,
1528191368.866218,0.214094,0.487222,3.031069,0.016874,0.014269,-0.014885,0.187740,-0.468173,-0.863463,-0.007900,0.001345,-0.002306,-7.701279,-24.084253,-42.907471,,,,,,,
1528191368.886371,0.214881,0.487495,3.030525,0.015701,0.028289,-0.020232,0.188392,-0.468414,-0.863190,-0.006126,0.003006,0.002793,-7.729263,-23.926956,-42.741699,,,,,,,
1528191368.906524,0.215223,0.487609,3.030332,0.003184,-0.004213,0.004323,0.188675,-0.468515,-0.863073,-0.000657,-0.000891,-0.001307,-7.753433,-23.734873,-42.671204,,,,,,,
1528191368.926677,0.214503,0.487845,3.030535,0.019358,-0.034334,0.013957,0.188030,-0.468723,-0.863101,-0.007855,0.000629,-0.003858,-7.794052,-23.868858,-42.722504,,,,,,,
1528191368.946830,0.214274,0.488518,3.030450,0.041392,-0.000722,-0.005240,0.187766,-0.469317,-0.862835,-0.012183,-0.004270,0.001294,-7.673508,-23.861170,-42.948059,,,,,,,
1528191368.966982,0.214810,0.489375,3.029590,0.048826,0.011348,-0.040468,0.188143,-0.470075,-0.862341,-0.008058,-0.006198,0.003286,-7.826736,-23.950388,-42.678925,,,,,,,
1528191368.987135,0.215692,0.489765,3.028245,0.017064,0.009117,-0.058654,0.188863,-0.470419,-0.861996,-0.004980,-0.005137,0.006680,-7.786407,-23.972048,-42.591858,,,,,,,
1528191369.007288,0.216252,0.489305,3.027019,-0.025291,-0.002986,-0.054433,0.189393,-0.470013,-0.862101,0.000838,-0.000309,0.000758,-7.903961,-23.976446,-42.724091,,,,,,,
1528191369.027441,0.216577,0.488594,3.026275,-0.022265,0.005516,-0.029878,0.189745,-0.469385,-0.862366,0.002226,0.001963,-0.014206,-8.012787,-23.885147,-42.669037,,,,,,,
1528191369.047594,0.216989,0.488476,3.025867,0.011518,0.019624,-0.014894,0.190112,-0.469281,-0.862342,-0.003024,0.001950,-0.021280,-7.670227,-23.830597,-42.673676,,,,,,,
1528191369.067746,0.218198,0.489024,3.025035,0.040967,0.057631,-0.042622,0.191098,-0.469764,-0.861860,-0.009015,-0.000435,-0.015825,-7.736298,-23.797331,-42.370697,,,,,,,
1528191369.087899,0.220181,0.489490,3.023534,0.029359,0.057663,-0.061859,0.192759,-0.470176,-0.861266,-0.003062,-0.004189,-0.005647,-7.763916,-23.951288,-42.558990,,,,,,,
1528191369.108052,0.221503,0.489699,3.022113,0.023372,0.013424,-0.052243,0.193876,-0.470360,-0.860914,-0.001844,0.001259,0.001524,-7.590607,-23.873871,-42.533691,,,,,,,
1528191369.128205,0.221742,0.490112,3.021031,0.037434,-0.022153,-0.030866,0.194039,-0.470724,-0.860678,-0.000085,0.005530,0.000159,-7.545929,-23.827726,-42.531799,,,,,,,
1528191369.148357,0.221527,0.491079,3.020545,0.056379,-0.014648,-0.004151,0.193754,-0.471577,-0.860276,0.000033,-0.001292,0.001603,-7.514786,-23.862747,-42.212006,,,,,,,
1528191369.168510,0.221656,0.492104,3.020064,0.043499,0.003636,-0.012713,0.193759,-0.472481,-0.859778,-0.007785,-0.003944,0.004020,-7.497253,-24.060640,-42.316833,,,,,,,
1528191369.188663,0.221886,0.492571,3.019364,0.022492,-0.014709,-0.027679,0.193908,-0.472893,-0.859518,-0.008758,-0.005683,0.001959,-7.816284,-23.857456,-42.071381,,,,,,,
1528191369.208816,0.221955,0.493149,3.018328,0.046967,-0.015571,-0.043667,0.193907,-0.473402,-0.859239,-0.011031,-0.004504,0.004975,-7.704254,-23.806683,-42.068146,,,,,,,
1528191369.228969,0.222899,0.493696,3.016785,0.030714,0.028624,-0.068257,0.194661,-0.473883,-0.858802,-0.009633,-0.006601,0.007515,-7.529144,-24.033022,-42.067688,,,,,,,
1528191369.249121,0.224495,0.493260,3.015083,-0.025624,0.041288,-0.077938,0.196077,-0.473499,-0.858692,0.002516,-0.002422,0.003376,-7.667328,-23.953308,-42.034912,,,,,,,
1528191369.269274,0.225403,0.492302,3.013798,-0.024290,0.003464,-0.052306,0.196958,-0.472656,-0.858955,0.010959,0.004119,-0.019188,-7.437119,-24.207258,-41.933716,,,,,,,
1528191369.289427,0.225543,0.492900,3.012951,0.081900,-0.015525,-0.015866,0.197015,-0.473183,-0.858652,0.010870,0.008675,-0.029364,-7.342178,-24.226109,-41.917725,,,,,,,
1528191369.309580,0.225640,0.495629,3.012080,0.165670,-0.010806,-0.006155,0.196809,-0.475585,-0.857371,0.002639,0.005584,-0.017598,-7.341690,-24.032373,-41.834717,,,,,,,
1528191369.329732,0.226501,0.498558,3.010766,0.130407,0.023608,-0.032893,0.197233,-0.478159,-0.855840,-0.007078,-0.000387,0.007345,-7.289978,-24.219006,-41.778656,,,,,,,
1528191369.349885,0.227622,0.499822,3.009395,0.039234,0.016697,-0.043685,0.198056,-0.479269,-0.855029,-0.001340,0.001044,0.015384,-7.408585,-24.213413,-41.650787,,,,,,,
1528191369.370038,0.228183,0.499852,3.008491,0.007503,0.000293,-0.029842,0.198532,-0.479296,-0.854904,0.004043,0.003038,0.007461,-7.267838,-24.194128,-41.386902,,,,,,,
1528191369.390191,0.227672,0.500653,3.008092,0.075829,-0.056624,0.010829,0.198009,-0.479998,-0.854631,0.007145,0.007098,-0.011031,-7.378784,-24.281261,-41.381470,,,,,,,
1528191369.410344,0.225893,0.503541,3.008155,0.173720,-0.096130,0.048328,0.196176,-0.482530,-0.853627,0.003103,0.004014,-0.002391,-7.241455,-24.612898,-41.806580,,,,,,,
1528191369.430496,0.224609,0.507014,3.007998,0.145758,-0.045499,0.016249,0.194706,-0.485569,-0.852240,-0.010593,-0.003323,0.015890,-7.247574,-24.437376,-41.431763,,,,,,,
1528191369.450649,0.224898,0.508251,3.007095,0.017014,0.009030,-0.042642,0.194818,-0.486650,-0.851597,-0.013711,-0.003462,0.022114,-7.172668,-24.499390,-41.393433,,,,,,,
1528191369.470802,0.225567,0.507158,3.006220,-0.066887,0.016124,-0.045952,0.195507,-0.485694,-0.851985,-0.000759,-0.003609,0.004649,-7.404648,-24.830820,-41.397644,,,,,,,
1528191369.490955,0.226140,0.506097,3.005557,-0.021327,0.019524,-0.030953,0.196110,-0.484767,-0.852374,0.006893,0.001125,-0.010678,-7.577164,-24.587172,-41.012909,,,,,,,
1528191369.511108,0.226954,0.506549,3.004792,0.050827,0.018813,-0.024454,0.196754,-0.485162,-0.852001,-0.000679,0.001413,-0.011754,-7.505814,-24.518639,-41.137817,,,,,,,
1528191369.531260,0.228000,0.507698,3.003695,0.064532,0.034044,-0.039390,0.197520,-0.486167,-0.851251,0.000356,-0.000253,0.000298,-7.309921,-24.571526,-41.148132,,,,,,,
1528191369.551413,0.229446,0.508548,3.002425,0.045406,0.037180,-0.041551,0.198656,-0.486909,-0.850562,0.003416,0.004503,0.002676,-7.036224,-24.601217,-41.018250,,,,,,,
1528191369.571566,0.230269,0.509235,3.001450,0.045617,0.006916,-0.020186,0.199280,-0.487509,-0.850072,0.013626,0.008399,-0.000453,-7.338150,-24.733959,-41.091949,,,,,,,
1528191369.591719,0.230039,0.510145,3.001300,0.046807,-0.020204,0.018257,0.198983,-0.488304,-0.849685,0.007880,0.004158,-0.006577,-7.345245,-24.707396,-40.824524,,,,,,,
1528191369.611872,0.230255,0.511224,3.001436,0.055740,0.047715,0.013976,0.199046,-0.489246,-0.849129,-0.005443,-0.000714,0.004372,-7.049438,-24.815615,-40.835815,,,,,,,
1528191369.632024,0.231529,0.511975,3.001096,0.029295,0.047727,-0.014876,0.200044,-0.489900,-0.848517,-0.005723,-0.000762,0.011633,-7.086411,-24.747883,-40.755127,,,,,,,
1528191369.652177,0.232234,0.512315,3.000420,0.022401,-0.006120,-0.023416,0.200604,-0.490196,-0.848213,0.008411,-0.002846,0.012139,-6.892365,-24.886238,-40.707581,,,,,,,
1528191369.672330,0.231720,0.512982,2.999711,0.055775,-0.057668,-0.018030,0.200092,-0.490777,-0.847998,0.002254,0.000757,-0.002664,-7.045242,-24.839014,-40.572449,,,,,,,
1528191369.692484,0.231494,0.514585,2.998981,0.091248,0.004965,-0.011592,0.199720,-0.492173,-0.847276,-0.006360,-0.000747,0.008363,-7.019547,-25.068861,-40.733246,,,,,,,
1528191369.712637,0.232396,0.515922,2.998296,0.049609,0.032761,-0.015921,0.200332,-0.493337,-0.846455,-0.005340,-0.001307,0.013355,-7.187775,-24.942904,-40.336609,,,,,,,
1528191369.732790,0.233058,0.515960,2.998009,-0.022446,0.017233,-0.006400,0.200888,-0.493370,-0.846304,0.005350,0.003364,0.020895,-7.037094,-24.983366,-40.861755,,,,,,,
1528191369.752942,0.232463,0.515398,2.998309,-0.022973,-0.047508,0.016036,0.200449,-0.492881,-0.846693,0.011847,-0.000954,-0.000353,-6.959625,-24.961885,-40.429016,,,,,,,
1528191369.773095,0.230886,0.515996,2.998657,0.061094,-0.074017,0.024687,0.199046,-0.493401,-0.846721,0.001073,0.002160,-0.009496,-7.000092,-24.977264,-40.312195,,,,,,,
1528191369.793248,0.230079,0.518098,2.998324,0.117981,-0.019718,-0.000880,0.198125,-0.495229,-0.845869,-0.008809,0.000340,0.000899,-7.008835,-25.079922,-40.671112,,,,,,,
1528191369.813401,0.231003,0.519790,2.997297,0.060266,0.032893,-0.029787,0.198715,-0.496698,-0.844869,-0.004226,0.002146,0.022222,-7.005020,-25.135153,-40.331512,,,,,,,
1528191369.833554,0.231565,0.519636,2.996648,-0.031745,-0.005376,-0.018153,0.199207,-0.496564,-0.844832,0.003552,0.001889,0.019118,-7.002716,-25.108250,-40.525238,,,,,,,
1528191369.853706,0.231161,0.518805,2.996693,-0.034869,-0.018419,0.001063,0.198960,-0.495842,-0.845314,0.005813,0.001488,0.006965,-7.300003,-25.143999,-40.540283,,,,,,,
1528191369.873859,0.230785,0.518676,2.996839,0.006410,-0.008523,0.006454,0.198657,-0.495731,-0.845450,0.003217,0.001590,0.000785,-7.202026,-25.104944,-40.525513,,,,,,,
1528191369.894012,0.231027,0.518785,2.996734,-0.002309,0.020581,-0.007443,0.198849,-0.495825,-0.845350,-0.004162,0.003485,0.013090,-6.965637,-24.916843,-40.352905,,,,,,,
1528191369.914165,0.231511,0.517890,2.996586,-0.064844,0.014894,-0.016063,0.199360,-0.495048,-0.845685,-0.003803,0.001151,0.008115,-7.180313,-24.734888,-40.535736,,,,,,,
1528191369.934318,0.231569,0.516584,2.996503,-0.049750,-0.010883,-0.013904,0.199557,-0.493913,-0.846302,0.003613,0.002351,-0.009106,-7.107056,-24.843235,-40.533691,,,,,,,
1528191369.954470,0.231060,0.516712,2.996329,0.045920,-0.033060,0.003307,0.199112,-0.494024,-0.846342,0.008026,0.003118,-0.017229,-7.218933,-25.105085,-40.278961,,,,,,,
1528191369.974623,0.231125,0.518412,2.996067,0.088874,0.024219,0.010818,0.198974,-0.495501,-0.845510,0.005112,0.001895,0.002996,-7.005829,-25.090027,-40.340942,,,,,,,
1528191369.994776,0.232043,0.519394,2.996000,0.014351,0.049665,0.008581,0.199638,-0.496354,-0.844853,-0.001137,0.000383,0.022984,-7.157013,-25.123835,-40.304504,,,,,,,
1528191370.014929,0.232437,0.518589,2.996335,-0.069106,0.010458,0.003145,0.200063,-0.495655,-0.845163,-0.000738,-0.003841,0.019708,-7.167755,-24.891891,-40.302063,,,,,,,
1528191370.035082,0.231868,0.517039,2.996672,-0.069743,-0.032584,-0.004314,0.199759,-0.494308,-0.846024,-0.003393,-0.007767,-0.006058,-7.397568,-24.862734,-40.260376,,,,,,,
1528191370.055235,0.231655,0.516291,2.996546,-0.015973,0.008683,-0.012800,0.199663,-0.493658,-0.846426,-0.009112,-0.004648,-0.012049,-7.104156,-24.868900,-40.216522,,,,,,,
1528191370.075387,0.232343,0.516210,2.996256,0.000754,0.034617,-0.010646,0.200255,-0.493587,-0.846327,-0.008253,0.001659,-0.005403,-7.178940,-24.965496,-40.335754,,,,,,,
1528191370.095540,0.232578,0.516049,2.996214,-0.013687,-0.014000,0.002156,0.200471,-0.493448,-0.846357,-0.002779,0.002588,-0.000261,-7.094360,-24.916561,-40.238861,,,,,,,
1528191370.115693,0.231700,0.515875,2.996299,-0.001734,-0.041917,-0.002096,0.199749,-0.493296,-0.846616,-0.006374,-0.001989,-0.000491,-7.571930,-24.759111,-40.517395,,,,,,,
1528191370.135846,0.231430,0.515959,2.996067,0.006353,0.004508,-0.013833,0.199511,-0.493369,-0.846630,-0.009981,-0.005166,-0.004642,-7.085678,-24.898737,-40.540588,,,,,,,
1528191370.155999,0.232536,0.515520,2.995696,-0.036661,0.066769,-0.020312,0.200496,-0.492987,-0.846619,-0.006298,-0.005304,0.005113,-7.170288,-24.952202,-40.320984,,,,,,,
1528191370.176152,0.234202,0.514114,2.995572,-0.085747,0.093394,-0.015044,0.202067,-0.491764,-0.846958,-0.000880,-0.003979,0.018085,-7.154724,-25.002768,-40.319489,,,,,,,
1528191370.196304,0.236367,0.511781,2.995805,-0.134783,0.115755,-0.016168,0.204169,-0.489731,-0.847631,-0.005163,0.000610,0.021337,-7.034393,-24.636623,-40.590912,,,,,,,
1528191370.216457,0.238032,0.508508,2.996410,-0.175923,0.086390,-0.006613,0.205957,-0.486874,-0.848843,-0.002496,0.004895,0.021466,-7.024445,-24.481901,-40.539001,,,,,,,
1528191370.236610,0.238855,0.504856,2.997535,-0.191640,0.058208,0.011526,0.207074,-0.483681,-0.850396,0.002521,0.001214,0.018013,-7.107834,-24.510462,-40.510284,,,,,,,
1528191370.256763,0.238967,0.501606,2.998538,-0.139278,0.026284,-0.006547,0.207541,-0.480835,-0.851895,-0.008551,-0.000718,-0.003040,-6.777115,-24.231262,-40.541840,,,,,,,
1528191370.276916,0.240505,0.500154,2.998232,-0.027317,0.096007,-0.040592,0.209016,-0.479561,-0.852252,-0.015779,-0.000252,0.002093,-6.527847,-24.047253,-40.618805,,,,,,,
1528191370.297068,0.243963,0.499536,2.997361,-0.043073,0.191773,-0.040638,0.212034,-0.479018,-0.851812,-0.010450,-0.002061,0.035085,-6.826263,-24.039877,-40.829315,,,,,,,
1528191370.317221,0.249406,0.496323,2.997431,-0.242653,0.308043,-0.035575,0.217046,-0.476195,-0.852132,-0.017171,0.000915,0.060857,-6.941544,-24.150389,-40.936005,,,,,,,
1528191370.337374,0.255261,0.488480,2.998888,-0.474256,0.331513,-0.031601,0.222968,-0.469284,-0.854434,-0.012595,0.000641,0.055270,-6.483368,-24.117348,-41.257202,,,,,,,
1528191370.357527,0.260491,0.477642,3.001351,-0.575873,0.302966,-0.033851,0.228730,-0.459686,-0.858121,-0.001115,-0.001206,0.017117,-6.071152,-23.676098,-41.177979,,,,,,,
1528191370.377680,0.264797,0.466917,3.003685,-0.506420,0.254904,-0.038025,0.233699,-0.450136,-0.861837,0.003972,-0.000655,-0.009120,-6.000717,-23.021706,-41.508850,,,,,,,
1528191370.397833,0.269487,0.458412,3.005483,-0.393211,0.291039,-0.032558,0.238750,-0.442524,-0.864390,0.005024,-0.003551,-0.005208,-6.084656,-22.658134,-41.527740,,,,,,,
1528191370.417985,0.274983,0.450928,3.006958,-0.383728,0.300825,-0.040021,0.244389,-0.435801,-0.866228,-0.003697,0.001093,0.000399,-5.828201,-22.387842,-41.857758,,,,,,,
1528191370.438138,0.280153,0.442759,3.008305,-0.422817,0.288867,-0.060353,0.249840,-0.428434,-0.868345,-0.008232,-0.001924,0.003904,-5.445053,-21.959074,-42.058105,,,,,,,
1528191370.458291,0.286217,0.433985,3.009558,-0.442539,0.357733,-0.068936,0.256153,-0.420489,-0.870387,-0.009907,-0.001691,0.008906,-5.440552,-21.893450,-42.574066,,,,,,,
1528191370.478444,0.293150,0.424812,3.011050,-0.467135,0.374791,-0.061497,0.263285,-0.412150,-0.872246,-0.002725,0.003932,0.006859,-5.002701,-21.487196,-42.691223,,,,,,,
1528191370.498597,0.299447,0.415805,3.012585,-0.424239,0.328732,-0.064635,0.269856,-0.403927,-0.874083,-0.003774,0.005489,-0.008898,-4.964844,-21.141619,-42.750336,,,,,,,
1528191370.518749,0.305830,0.409025,3.013435,-0.274743,0.342467,-0.060171,0.276248,-0.397715,-0.874934,-0.002643,0.002481,-0.006673,-4.537567,-20.642504,-43.060120,,,,,,,
1528191370.538902,0.312090,0.405189,3.013291,-0.129885,0.289432,-0.064253,0.282186,-0.394193,-0.874633,-0.004415,0.005780,-0.016480,-4.187622,-20.539927,-43.397095,,,,,,,
1528191370.559055,0.317381,0.403657,3.012639,-0.032768,0.224146,-0.040627,0.286998,-0.392784,-0.873700,0.001881,0.008079,-0.007846,-3.883499,-20.540812,-43.621307,,,,,,,
1528191370.579208,0.321241,0.403323,3.012132,-0.005762,0.166017,-0.018160,0.290409,-0.392477,-0.872711,0.009090,0.005498,0.005050,-3.682983,-20.669903,-43.811676,,,,,,,
1528191370.599361,0.324579,0.402580,3.011826,-0.055491,0.155050,-0.033168,0.293414,-0.391793,-0.872012,0.011212,0.001748,0.002399,-3.674591,-20.625805,-43.778168,,,,,,,
1528191370.619514,0.327238,0.400469,3.011448,-0.108070,0.110720,-0.055641,0.295996,-0.389850,-0.872011,0.026346,-0.000180,-0.015746,-3.668106,-20.716152,-43.603149,,,,,,,
1528191370.639666,0.328928,0.398478,3.011149,-0.064156,0.058029,-0.025682,0.297720,-0.388016,-0.872241,0.033319,0.007065,-0.034512,-3.204819,-20.477728,-44.024414,,,,,,,
1528191370.659819,0.329331,0.398663,3.011256,0.050746,0.007736,0.033196,0.298049,-0.388186,-0.872054,0.027391,0.017184,-0.032655,-3.473175,-20.403389,-43.951538,,,,,,,
1528191370.679972,0.329075,0.401016,3.011949,0.116365,0.007800,0.089860,0.297529,-0.390354,-0.871263,0.024141,0.017612,-0.015227,-3.375580,-20.597799,-43.781647,,,,,,,
1528191370.700124,0.329318,0.403789,3.013423,0.089237,0.062460,0.113307,0.297390,-0.392905,-0.870163,0.009495,0.021369,0.012925,-3.331451,-20.941319,-43.783630,,,,,,,
1528191370.720277,0.330648,0.404934,3.015454,-0.021709,0.127603,0.101402,0.298401,-0.393958,-0.869341,0.010056,0.014381,0.033220,-3.354340,-20.406473,-43.825928,,,,,,,
1528191370.740429,0.332184,0.403491,3.018049,-0.153219,0.121573,0.087368,0.299920,-0.392631,-0.869418,0.019614,0.001029,0.021365,-3.482941,-20.342213,-44.181427,,,,,,,
1528191370.760582,0.333003,0.400155,3.021397,-0.229389,0.092023,0.096889,0.301059,-0.389562,-0.870405,0.010632,-0.000789,-0.000338,-3.502731,-20.626612,-44.242279,,,,,,,
1528191370.780735,0.333780,0.396246,3.025288,-0.242683,0.146803,0.110736,0.302232,-0.385958,-0.871603,0.005172,-0.007688,-0.007303,-3.271439,-20.268850,-44.469574,,,,,,,
1528191370.800888,0.336141,0.392680,3.029389,-0.222301,0.231928,0.124619,0.304741,-0.382666,-0.872181,-0.008598,-0.003732,-0.012539,-2.854507,-20.316980,-44.800171,,,,,,,
1528191370.821041,0.339903,0.389512,3.033494,-0.207753,0.263214,0.129968,0.308422,-0.379737,-0.872167,-0.020016,0.000693,-0.011622,-2.641541,-19.706799,-44.828125,,,,,,,
1528191370.841194,0.342536,0.386830,3.037705,-0.177165,0.165294,0.144977,0.311059,-0.377255,-0.872308,-0.020669,-0.006046,-0.016074,-2.858734,-19.506319,-44.961395,,,,,,,
1528191370.861346,0.342670,0.385310,3.041316,-0.091897,0.021551,0.123762,0.311368,-0.375846,-0.872805,-0.018155,-0.010888,-0.026227,-2.814011,-19.394686,-45.037811,,,,,,,
1528191370.881499,0.340331,0.385831,3.043678,0.038026,-0.131639,0.103679,0.309260,-0.376329,-0.873347,-0.012293,-0.014845,-0.024953,-2.881287,-19.669134,-44.977966,,,,,,,
1528191370.901652,0.334536,0.388531,3.044332,0.160418,-0.376273,0.054776,0.303859,-0.378829,-0.874161,0.001973,-0.007752,-0.028244,-2.999390,-19.615467,-45.096222,,,,,,,
1528191370.921805,0.323760,0.393788,3.043098,0.342575,-0.662675,0.024110,0.293784,-0.383689,-0.875484,0.006799,0.007072,-0.051273,-3.712372,-19.635290,-44.850250,,,,,,,
1528191370.941958,0.308363,0.403396,3.040349,0.580436,-0.908090,0.041553,0.279139,-0.392544,-0.876350,0.016577,0.019909,-0.058586,-4.308640,-20.126593,-44.566132,,,,,,,
1528191370.962110,0.290128,0.416936,3.037284,0.718679,-0.950616,0.081238,0.261568,-0.404961,-0.876121,0.026884,0.016991,-0.015496,-5.041306,-20.635105,-44.098633,,,,,,,
1528191370.982263,0.274161,0.430546,3.035065,0.622412,-0.764919,0.100293,0.246031,-0.417367,-0.874799,0.022630,0.008340,0.028760,-5.778641,-21.270422,-43.591278,,,,,,,
1528191371.002416,0.261886,0.440606,3.034473,0.403684,-0.532457,0.109575,0.234176,-0.426488,-0.873653,0.010026,0.003117,0.054607,-6.305740,-21.613974,-43.450745,,,,,,,
1528191371.022569,0.252319,0.447007,3.035098,0.252086,-0.437441,0.109358,0.225121,-0.432269,-0.873192,0.007011,-0.001707,0.037178,-6.936996,-21.756807,-43.290649,,,,,,,
1528191371.042722,0.242287,0.452178,3.036150,0.245389,-0.515020,0.108300,0.215810,-0.436926,-0.873225,0.004572,0.001410,0.010401,-7.371658,-22.011843,-43.104340,,,,,,,
1528191371.062875,0.229377,0.458731,3.036655,0.357582,-0.702805,0.093536,0.203864,-0.442811,-0.873131,0.000848,0.005021,-0.018318,-7.692947,-22.281431,-42.785431,,,,,,,
1528191371.083027,0.213880,0.467572,3.036199,0.465731,-0.795774,0.068074,0.189471,-0.450720,-0.872326,0.008405,0.003866,-0.022190,-8.392456,-22.513756,-42.544739,,,,,,,
1528191371.103180,0.200720,0.476757,3.035370,0.421147,-0.565485,0.058352,0.177142,-0.458900,-0.870650,0.010053,-0.000206,0.006316,-8.979568,-22.842293,-42.155060,,,,,,,
1528191371.123333,0.193474,0.482944,3.035727,0.219384,-0.227512,0.093257,0.170279,-0.464388,-0.869108,0.000955,0.002016,0.016492,-9.631454,-23.218842,-42.089050,,,,,,,
1528191371.143486,0.190890,0.485788,3.037835,0.082478,-0.015219,0.131467,0.167782,-0.466905,-0.868244,-0.006848,0.004412,0.001789,-9.992722,-23.287815,-41.640747,,,,,,,
1528191371.163639,0.189662,0.487981,3.040374,0.112267,-0.020399,0.124033,0.166522,-0.468844,-0.867442,-0.016848,-0.000440,-0.019689,-9.854050,-23.414604,-41.751923,,,,,,,
1528191371.183791,0.186619,0.492184,3.041709,0.250922,-0.190654,0.080473,0.163515,-0.472551,-0.866001,-0.015413,-0.006071,-0.024883,-10.148666,-23.502226,-41.670166,,,,,,,
1528191371.203944,0.180180,0.498753,3.041493,0.362401,-0.406305,0.039027,0.157376,-0.478330,-0.863963,-0.006939,-0.002306,-0.013173,-10.281479,-23.543135,-41.417419,,,,,,,
1528191371.224097,0.169827,0.507445,3.040441,0.481048,-0.604856,0.029608,0.147714,-0.485945,-0.861416,-0.002130,0.005095,-0.023518,-10.722092,-23.712706,-41.117279,,,,,,,
1528191371.244250,0.156833,0.518501,3.039099,0.577501,-0.707759,0.038300,0.135662,-0.495578,-0.857903,0.014195,0.013858,-0.007377,-11.095215,-24.429892,-41.345184,,,,,,,
1528191371.264403,0.143039,0.529635,3.038233,0.518836,-0.682317,0.054236,0.123021,-0.505218,-0.854178,0.019985,0.016647,0.026938,-11.684113,-24.712395,-40.329681,,,,,,,
1528191371.284556,0.131274,0.538259,3.038438,0.366444,-0.512043,0.079629,0.112389,-0.512642,-0.851215,0.013756,0.009346,0.035404,-12.300003,-25.100130,-39.975525,,,,,,,
1528191371.304708,0.122573,0.544280,3.039839,0.257487,-0.334003,0.107208,0.104599,-0.517803,-0.849081,0.004349,0.003963,0.018897,-12.605423,-25.293921,-39.544800,,,,,,,
1528191371.324861,0.116449,0.548856,3.041556,0.200363,-0.237329,0.096437,0.099120,-0.521712,-0.847344,-0.001296,-0.004869,0.007073,-12.911026,-25.472139,-39.730652,,,,,,,
1528191371.345014,0.111182,0.552942,3.042967,0.194927,-0.215710,0.075068,0.094420,-0.525193,-0.845729,-0.008833,-0.003386,0.011332,-13.313080,-25.870592,-39.588409,,,,,,,
1528191371.365167,0.105943,0.556730,3.043889,0.172089,-0.263109,0.053703,0.089776,-0.528413,-0.844227,-0.006906,-0.000517,0.016652,-13.385147,-25.653812,-39.167694,,,,,,,
1528191371.385320,0.099012,0.560185,3.044481,0.177323,-0.363166,0.038787,0.083742,-0.531343,-0.843008,-0.005357,-0.006148,-0.003413,-13.606659,-25.907007,-39.075317,,,,,,,
1528191371.405472,0.090591,0.564682,3.044875,0.249116,-0.437093,0.041033,0.076423,-0.535147,-0.841295,-0.000557,-0.002756,-0.017516,-14.008881,-26.100304,-38.796173,,,,,,,
1528191371.425625,0.079891,0.571079,3.045349,0.361744,-0.566853,0.051876,0.067142,-0.540540,-0.838635,0.000134,-0.000918,-0.039875,-14.263016,-26.191355,-38.748260,,,,,,,
1528191371.445778,0.067240,0.579730,3.045542,0.455136,-0.670683,0.027461,0.056211,-0.547798,-0.834720,0.004199,0.003166,-0.023465,-14.853790,-26.392000,-38.087921,,,,,,,
1528191371.465931,0.052804,0.589159,3.044874,0.473112,-0.763009,-0.010932,0.043881,-0.555662,-0.830249,0.000751,0.005888,0.002109,-15.273529,-26.862671,-37.639526,,,,,,,
1528191371.486084,0.032289,0.598171,3.044879,0.444734,-1.266489,0.054272,0.026678,-0.563132,-0.825936,-0.001028,0.072516,-0.041541,-15.983200,-27.197847,-37.183777,,,,,,,
1528191371.506236,0.002636,0.609315,3.048617,0.610598,-1.358004,0.224264,0.002162,-0.572306,-0.820037,0.059713,0.030191,0.135833,-17.016388,-27.497892,-36.366333,,,,,,,
1528191371.526389,-0.030772,0.620224,3.054453,0.455884,-1.605437,0.212386,-0.025037,-0.581217,-0.813363,0.035123,0.000391,0.133874,-18.067062,-28.021393,-35.806061,,,,,,,
1528191371.546542,-0.066462,0.625377,3.058461,0.155949,-1.618464,0.121263,-0.053844,-0.585403,-0.808952,0.013958,-0.005555,0.152489,-19.524002,-28.040421,-34.750519,,,,,,,
1528191371.566695,-0.095968,0.624709,3.059735,-0.150464,-1.273855,0.010825,-0.077723,-0.584861,-0.807401,-0.040349,-0.031883,0.080563,-20.890335,-28.492754,-34.170532,,,,,,,
1528191371.586848,-0.112289,0.617148,3.057240,-0.509698,-0.620490,-0.088009,-0.091383,-0.578712,-0.810396,-0.033404,-0.036996,0.012392,-21.970169,-28.575563,-33.917389,,,,,,,
1528191371.607001,-0.114797,0.606064,3.053831,-0.546419,-0.003765,-0.045486,-0.094144,-0.569637,-0.816486,-0.035678,-0.009785,-0.067959,-22.537231,-28.162806,-33.609955,,,,,,,
1528191371.627153,-0.112467,0.596645,3.053402,-0.414875,0.071694,0.080644,-0.092840,-0.561870,-0.821999,-0.011271,0.003047,-0.044425,-22.595612,-27.856173,-33.708740,,,,,,,
1528191371.647306,-0.117437,0.589924,3.054457,-0.259406,-0.425993,0.056395,-0.097364,-0.556298,-0.825259,-0.009692,-0.042961,-0.049863,-22.749420,-27.670244,-33.986969,,,,,,,
1528191371.667459,-0.132662,0.588619,3.052962,0.056482,-0.997322,-0.130975,-0.110012,-0.555213,-0.824400,-0.018711,-0.017801,-0.082857,-23.262177,-27.338314,-34.083008,,,,,,,
1528191371.687612,-0.154098,0.594348,3.047959,0.337561,-1.260971,-0.290719,-0.127167,-0.559968,-0.818696,-0.002990,0.013017,-0.077300,-23.941360,-27.568880,-33.622101,,,,,,,
1528191371.707765,-0.173782,0.601615,3.042257,0.261758,-0.997654,-0.263109,-0.142550,-0.565975,-0.812005,0.032946,0.019497,-0.008705,-24.567657,-27.937153,-32.919525,,,,,,,
1528191371.727917,-0.186249,0.604684,3.038916,0.062843,-0.562434,-0.079825,-0.152339,-0.568502,-0.808454,0.056483,0.027517,-0.016879,-25.793564,-28.373898,-31.582550,,,,,,,
1528191371.748070,-0.194538,0.605866,3.040317,0.081634,-0.256353,0.108038,-0.158905,-0.569474,-0.806503,0.054748,0.022828,-0.000671,-26.116653,-28.925688,-31.922699,,,,,,,
1528191371.768223,-0.199792,0.606341,3.043476,0.008515,-0.158796,0.117533,-0.163086,-0.569864,-0.805392,0.031128,-0.005362,0.033878,-26.098526,-28.305037,-31.271881,,,,,,,
1528191371.788376,-0.204566,0.604641,3.045270,-0.102419,-0.195777,0.069358,-0.167126,-0.568467,-0.805552,0.003491,-0.013427,0.038661,-26.447495,-28.418978,-31.316650,,,,,,,
1528191371.808529,-0.208114,0.601723,3.045380,-0.164303,-0.145254,0.023363,-0.170325,-0.566063,-0.806574,-0.010598,0.004754,0.031656,-26.725845,-28.473312,-31.549316,,,,,,,
1528191371.828681,-0.210586,0.597648,3.045319,-0.220972,-0.111276,0.055306,-0.172799,-0.562700,-0.808399,-0.010611,0.005998,0.028064,-26.966721,-27.981817,-31.494598,,,,,,,
1528191371.848834,-0.211515,0.591917,3.045367,-0.324037,0.013074,0.058349,-0.174224,-0.557953,-0.811378,-0.001710,-0.009186,0.043891,-27.014206,-28.067936,-31.883636,,,,,,,
1528191371.868987,-0.208238,0.583284,3.044290,-0.496723,0.210364,0.045276,-0.172554,-0.550768,-0.816627,0.005013,-0.009504,0.045844,-27.001389,-27.699282,-31.751740,,,,,,,
1528191371.889140,-0.200492,0.571292,3.042682,-0.651567,0.417273,0.065320,-0.167527,-0.540719,-0.824353,0.013413,0.005105,0.031399,-26.960632,-27.370499,-32.659058,,,,,,,
1528191371.909293,-0.189716,0.556705,3.041186,-0.764147,0.532872,0.083295,-0.160105,-0.528392,-0.833767,0.001795,0.012080,0.026303,-26.883911,-26.896749,-32.979462,,,,,,,
1528191371.929446,-0.177749,0.540261,3.039551,-0.841857,0.559389,0.078919,-0.151631,-0.514360,-0.844062,-0.003581,-0.006224,0.013908,-26.731369,-26.463516,-33.883179,,,,,,,
1528191371.949598,-0.165584,0.523051,3.037581,-0.850184,0.549786,0.054363,-0.142791,-0.499525,-0.854450,-0.004884,-0.014940,0.000934,-26.589279,-25.815569,-34.440796,,,,,,,
1528191371.969751,-0.153870,0.506707,3.035466,-0.787193,0.517931,0.033093,-0.134006,-0.485301,-0.864017,-0.001828,-0.013402,-0.022092,-26.223328,-25.042965,-35.307343,,,,,,,
1528191371.989904,-0.142215,0.491728,3.033746,-0.733505,0.559071,0.049166,-0.124943,-0.472150,-0.872619,0.008976,-0.002658,-0.015000,-25.988434,-24.647104,-36.025726,,,,,,,
1528191372.010057,-0.129333,0.476694,3.033265,-0.761432,0.688958,0.102481,-0.114594,-0.458844,-0.881096,0.013139,-0.002841,-0.000435,-25.731750,-24.226177,-36.888123,,,,,,,
1528191372.030210,-0.113086,0.460238,3.033886,-0.834718,0.908078,0.138637,-0.101104,-0.444161,-0.890224,0.015319,0.002999,0.018855,-25.382095,-23.699223,-37.688354,,,,,,,
1528191372.050362,-0.093511,0.442244,3.035700,-0.903052,1.044195,0.195111,-0.084391,-0.427969,-0.899845,0.014475,0.004644,0.031910,-24.517334,-22.839413,-38.755737,,,,,,,
1528191372.070515,-0.074251,0.423198,3.038668,-0.939696,0.983573,0.215365,-0.067638,-0.410679,-0.909268,0.006329,-0.000607,0.024212,-24.126144,-22.222795,-39.540070,,,,,,,
1528191372.090668,-0.057603,0.404437,3.041494,-0.899823,0.822476,0.169543,-0.052926,-0.393501,-0.917799,-0.012061,-0.000603,0.000975,-23.524017,-21.479158,-40.810242,,,,,,,
1528191372.110821,-0.042519,0.386743,3.043336,-0.871719,0.790655,0.105526,-0.039366,-0.377174,-0.925305,-0.015611,-0.007729,0.001340,-23.077545,-20.557320,-41.390594,,,,,,,
1528191372.130974,-0.024251,0.368300,3.044652,-0.952768,1.060583,0.097887,-0.022622,-0.360030,-0.932666,0.002481,-0.015794,0.020862,-22.359222,-19.997572,-42.504547,,,,,,,
1528191372.151126,0.001060,0.346887,3.047516,-1.128461,1.430753,0.181927,0.000997,-0.339972,-0.940435,0.026378,-0.009439,0.015783,-21.839859,-19.018702,-43.302032,,,,,,,
1528191372.171279,0.030383,0.323013,3.053217,-1.192957,1.593555,0.287507,0.028807,-0.317425,-0.947846,0.027544,0.005550,-0.023010,-20.509521,-18.065052,-44.656616,,,,,,,
1528191372.191432,0.060630,0.300888,3.061188,-1.051181,1.620966,0.344261,0.057871,-0.296369,-0.953319,0.007330,0.006635,-0.047261,-19.251755,-17.069942,-45.884460,,,,,,,
1528191372.211585,0.088849,0.282814,3.069468,-0.848764,1.441365,0.301853,0.085207,-0.279059,-0.956486,-0.022845,0.009604,-0.062816,-17.978119,-16.172535,-47.077118,,,,,,,
1528191372.231738,0.113451,0.268376,3.075851,-0.689383,1.237136,0.185723,0.109155,-0.265166,-0.958004,-0.039133,-0.003023,-0.051273,-16.567688,-15.139484,-47.906830,,,,,,,
1528191372.251891,0.134465,0.256364,3.079830,-0.565838,1.001412,0.082372,0.129679,-0.253565,-0.958587,-0.038965,0.000879,-0.050996,-15.683395,-14.639320,-48.697113,,,,,,,
1528191372.272043,0.150968,0.247450,3.081804,-0.379569,0.745428,0.005793,0.145814,-0.244933,-0.958512,-0.027192,-0.000124,-0.051299,-14.729218,-14.101604,-49.173370,,,,,,,
1528191372.292196,0.162543,0.242088,3.082374,-0.206267,0.495554,-0.017423,0.157109,-0.239730,-0.958043,-0.009816,-0.001740,-0.039455,-14.085892,-13.990257,-49.450104,,,,,,,
1528191372.312349,0.171040,0.239155,3.082613,-0.129047,0.404366,-0.003417,0.165363,-0.236882,-0.957362,0.011487,-0.003154,-0.002523,-13.602051,-13.439632,-49.687653,,,,,,,
1528191372.332502,0.179456,0.236131,3.083609,-0.183770,0.453397,0.037076,0.173541,-0.233943,-0.956637,0.016827,0.004481,0.030459,-13.236755,-13.543938,-49.690399,,,,,,,
1528191372.352655,0.188502,0.231641,3.085559,-0.260389,0.469033,0.055123,0.182383,-0.229575,-0.956050,0.003866,0.014884,0.026546,-12.621033,-13.343586,-50.372742,,,,,,,
1528191372.372807,0.197582,0.226568,3.087571,-0.262513,0.474474,0.041234,0.191282,-0.224635,-0.955484,-0.008619,0.008631,-0.000555,-12.274796,-13.062534,-50.166473,,,,,,,
1528191372.392960,0.206653,0.222144,3.088773,-0.201748,0.458858,0.002882,0.200143,-0.220322,-0.954673,-0.017526,0.008560,-0.024361,-11.771240,-13.115063,-50.576416,,,,,,,
1528191372.413113,0.215704,0.219032,3.089488,-0.133729,0.447364,0.007241,0.208922,-0.217285,-0.953488,-0.010130,-0.002152,-0.023685,-11.217453,-12.497780,-50.407013,,,,,,,
1528191372.433266,0.223969,0.217120,3.090053,-0.076977,0.393826,0.007326,0.216887,-0.215418,-0.952132,-0.000990,-0.000570,-0.026170,-10.896393,-12.386574,-50.638916,,,,,,,
1528191372.453419,0.230877,0.216475,3.090205,-0.003016,0.319974,-0.003241,0.223490,-0.214789,-0.950746,-0.000865,0.004233,-0.040038,-10.419769,-12.242237,-50.634918,,,,,,,
1528191372.473571,0.236382,0.217738,3.089849,0.104871,0.246254,-0.003088,0.228657,-0.216022,-0.949237,0.001613,0.003665,-0.046476,-10.108292,-12.286739,-50.561249,,,,,,,
1528191372.493724,0.241302,0.220727,3.089044,0.172900,0.234767,-0.000869,0.233169,-0.218939,-0.947469,-0.003753,0.000753,-0.020426,-9.818512,-12.464748,-50.407990,,,,,,,
1528191372.513877,0.245683,0.224126,3.087996,0.179779,0.185342,-0.015793,0.237136,-0.222254,-0.945711,-0.005492,0.003993,-0.008787,-9.337769,-12.320114,-50.314575,,,,,,,
1528191372.534030,0.249183,0.227836,3.086291,0.214185,0.146886,-0.040299,0.240239,-0.225870,-0.944070,-0.002004,0.001780,-0.002891,-9.332779,-12.669014,-50.199829,,,,,,,
1528191372.554183,0.253564,0.231808,3.084209,0.207009,0.235205,-0.047798,0.244145,-0.229738,-0.942132,0.000773,0.003282,0.012857,-9.052185,-12.768959,-50.018707,,,,,,,
1528191372.574336,0.259627,0.234623,3.082650,0.122442,0.303549,-0.024429,0.249687,-0.232476,-0.940006,0.003716,0.002847,0.011921,-8.742340,-13.067570,-49.946564,,,,,,,
1528191372.594488,0.265408,0.236666,3.081801,0.120819,0.245300,-0.009472,0.254992,-0.234463,-0.938086,-0.004839,-0.000110,-0.012094,-8.264893,-13.534737,-50.637634,,,,,,,
1528191372.614641,0.268609,0.240289,3.080139,0.248799,0.079244,-0.044512,0.257765,-0.237983,-0.936440,-0.012312,0.002006,-0.032187,-7.995316,-13.411129,-49.932007,,,,,,,
1528191372.634794,0.270041,0.246002,3.076700,0.344960,0.031623,-0.104166,0.258739,-0.243528,-0.934745,-0.021816,-0.000155,-0.020577,-8.114182,-13.514030,-49.571075,,,,,,,
1528191372.654947,0.273239,0.251860,3.072175,0.318485,0.151207,-0.139466,0.261338,-0.249205,-0.932523,-0.020050,0.000609,0.007993,-8.097229,-13.818947,-49.254822,,,,,,,
1528191372.675100,0.277381,0.257201,3.067613,0.344105,0.131913,-0.129818,0.264830,-0.254375,-0.930139,-0.002440,-0.005773,-0.034934,-7.954010,-13.895393,-48.942413,,,,,,,
1528191372.695252,0.280817,0.265524,3.062518,0.536630,0.081202,-0.114615,0.267428,-0.262415,-0.927157,0.013654,0.007181,-0.054990,-7.677673,-14.341236,-48.998810,,,,,,,
1528191372.715405,0.282056,0.276381,3.056931,0.613138,-0.047708,-0.097405,0.267768,-0.272876,-0.924034,0.011651,0.016132,-0.054619,-7.100067,-14.677231,-49.110535,,,,,,,
1528191372.735559,0.283869,0.287674,3.051988,0.583036,0.090836,-0.053700,0.268562,-0.283722,-0.920530,0.008476,0.013504,-0.006335,-6.904831,-15.342842,-48.233459,,,,,,,
1528191372.755711,0.288515,0.297669,3.048158,0.497943,0.212994,-0.023939,0.272016,-0.293292,-0.916508,-0.001295,0.015079,0.000370,-6.924133,-15.765114,-47.866730,,,,,,,
1528191372.775864,0.294443,0.306804,3.044739,0.483856,0.244147,-0.023968,0.276655,-0.302014,-0.912277,-0.000669,0.006939,0.004348,-6.479843,-16.218975,-47.713806,,,,,,,
1528191372.796016,0.299095,0.316488,3.040814,0.542339,0.125013,-0.040944,0.280021,-0.311231,-0.908143,0.003426,0.005017,-0.007202,-5.664307,-17.228189,-47.093414,,,,,,,
1528191372.816170,0.301856,0.326986,3.036159,0.567656,0.034768,-0.057976,0.281541,-0.321190,-0.904197,0.000182,0.010933,0.008414,-5.373062,-17.902540,-46.872345,,,,,,,
1528191372.836322,0.303494,0.337196,3.031278,0.550129,-0.015889,-0.069731,0.282027,-0.330842,-0.900557,-0.012648,0.015459,-0.001481,-5.362045,-17.988586,-46.288879,,,,,,,
1528191372.856475,0.304800,0.347599,3.026031,0.581002,-0.022126,-0.080368,0.282154,-0.340641,-0.896857,-0.005405,0.013233,-0.000711,-5.158539,-18.350794,-46.142792,,,,,,,
1528191372.876628,0.305999,0.358548,3.020826,0.595884,-0.034021,-0.054718,0.282089,-0.350915,-0.892908,0.006806,0.005135,0.009683,-5.187668,-18.881592,-45.556427,,,,,,,
1528191372.896780,0.306474,0.369541,3.015836,0.585800,-0.088991,-0.057924,0.281332,-0.361188,-0.889042,-0.004446,0.003278,0.007374,-5.119324,-19.423639,-45.254211,,,,,,,
1528191372.916934,0.305395,0.380289,3.010324,0.588979,-0.186767,-0.099536,0.279189,-0.371189,-0.885591,-0.020553,-0.003110,0.007433,-5.227524,-19.869436,-44.680023,,,,,,,
1528191372.937086,0.303029,0.390724,3.003486,0.591216,-0.287642,-0.167843,0.275922,-0.380858,-0.882504,-0.020963,-0.007219,-0.010669,-5.498062,-19.966038,-44.346466,,,,,,,
1528191372.957239,0.298819,0.401851,2.995333,0.689953,-0.394664,-0.194389,0.270940,-0.391122,-0.879553,0.000086,-0.004202,-0.055215,-5.559875,-20.561655,-43.605225,,,,,,,
1528191372.977392,0.294284,0.416963,2.986312,0.928606,-0.394642,-0.151377,0.265203,-0.404985,-0.875016,0.014780,0.013476,-0.077178,-5.839111,-21.038624,-42.970398,,,,,,,
1528191372.997545,0.290005,0.435654,2.977667,1.017352,-0.377313,-0.076537,0.259247,-0.422004,-0.868737,0.024795,0.019584,-0.028053,-6.076538,-21.801620,-42.359985,,,,,,,
1528191373.017697,0.286057,0.453859,2.970857,0.901984,-0.319015,-0.017969,0.253605,-0.438437,-0.862239,0.014294,0.019477,0.028148,-6.296921,-22.712662,-41.661316,,,,,,,
1528191373.037850,0.283353,0.468760,2.965299,0.702420,-0.195085,-0.037473,0.249418,-0.451780,-0.856554,-0.000395,0.018293,0.075594,-6.335114,-23.303133,-41.374542,,,,,,,
1528191373.058003,0.283267,0.479659,2.960789,0.503808,-0.068030,-0.034549,0.247954,-0.461476,-0.851797,0.005007,0.017674,0.090688,-6.308121,-23.788408,-40.694916,,,,,,,
1528191373.078156,0.283284,0.487216,2.957938,0.337152,-0.076662,-0.001657,0.246986,-0.468168,-0.848420,0.018105,0.017789,0.098023,-6.194962,-24.114305,-40.475708,,,,,,,
1528191373.098310,0.281908,0.492073,2.956435,0.208139,-0.130196,0.007806,0.245183,-0.472454,-0.846565,0.017024,0.002438,0.078147,-6.134079,-24.170828,-40.277893,,,,,,,
1528191373.118461,0.279109,0.496378,2.955030,0.242608,-0.179484,-0.004953,0.242250,-0.476244,-0.845285,-0.010331,0.000612,0.018380,-6.214890,-24.341736,-40.146576,,,,,,,
1528191373.138614,0.275326,0.501417,2.952861,0.269195,-0.290147,-0.028380,0.238395,-0.480669,-0.843875,-0.017845,-0.003279,-0.006040,-6.474457,-24.548807,-40.118774,,,,,,,
1528191373.158767,0.267614,0.506588,2.950481,0.297483,-0.477401,-0.027232,0.231220,-0.485197,-0.843280,-0.004139,-0.010912,-0.018994,-6.826172,-24.729538,-39.861755,,,,,,,
1528191373.178921,0.261143,0.513134,2.947323,0.351720,-0.364931,-0.058156,0.224934,-0.490910,-0.841672,0.002636,0.000279,0.002423,-6.905121,-25.144476,-39.553101,,,,,,,
1528191373.199073,0.255884,0.518562,2.944691,0.241599,-0.291400,-0.024145,0.219827,-0.495632,-0.840253,0.008262,-0.001469,0.026105,-7.082184,-25.479067,-39.371796,,,,,,,
1528191373.219225,0.253074,0.521690,2.943126,0.130626,-0.108821,-0.042477,0.217075,-0.498346,-0.839362,-0.014072,0.012094,0.036658,-7.167862,-25.679798,-39.151794,,,,,,,
1528191373.239378,0.252825,0.523670,2.941564,0.121565,-0.052947,-0.027559,0.216618,-0.500062,-0.838459,0.001231,-0.019958,-0.003658,-7.252441,-25.752697,-38.969940,,,,,,,
1528191373.259531,0.250555,0.526836,2.940015,0.199533,-0.218379,-0.027420,0.214321,-0.502801,-0.837411,0.000477,0.000177,-0.011543,-7.150909,-25.959375,-39.315643,,,,,,,
1528191373.279685,0.245033,0.531338,2.938202,0.259376,-0.380761,-0.011288,0.209142,-0.506688,-0.836377,0.002375,-0.008052,-0.013263,-7.207672,-26.149689,-39.007233,,,,,,,
1528191373.299837,0.237163,0.537330,2.936241,0.329110,-0.457901,-0.016526,0.201837,-0.511844,-0.835031,-0.011712,0.002795,-0.016120,-7.526047,-26.273829,-38.899384,,,,,,,
1528191373.319989,0.229437,0.543703,2.933556,0.325746,-0.428689,-0.045365,0.194634,-0.517309,-0.833372,-0.007119,-0.003306,-0.015643,-7.931625,-26.644629,-38.356873,,,,,,,
1528191373.340142,0.223909,0.549068,2.930983,0.253285,-0.285869,-0.041223,0.189405,-0.521892,-0.831717,0.000918,0.002849,0.021491,-8.155670,-27.046230,-38.516663,,,,,,,
1528191373.360296,0.220084,0.552612,2.929093,0.148653,-0.222943,-0.032825,0.185817,-0.524913,-0.830625,0.009831,0.005000,0.039960,-8.336212,-26.965561,-38.160919,,,,,,,
1528191373.380448,0.216184,0.554200,2.927662,0.065109,-0.248059,-0.054270,0.182397,-0.526264,-0.830528,0.000082,0.029117,0.040519,-8.497604,-26.845085,-37.763519,,,,,,,
1528191373.400601,0.211128,0.555560,2.926067,0.087859,-0.299681,-0.045694,0.178046,-0.527420,-0.830739,0.038187,0.009872,0.020268,-8.550385,-27.000551,-37.673492,,,,,,,
1528191373.420754,0.204864,0.557333,2.925010,0.095784,-0.366625,-0.005097,0.172648,-0.528925,-0.830921,0.022192,-0.004293,0.022816,-8.911423,-26.708303,-37.576202,,,,,,,
1528191373.440907,0.197541,0.558754,2.925295,0.033746,-0.329485,0.035386,0.166411,-0.530130,-0.831426,0.011217,-0.003821,0.041829,-8.972519,-27.029476,-37.657562,,,,,,,
1528191373.461059,0.191752,0.558104,2.925907,-0.069992,-0.238394,0.013885,0.161661,-0.529579,-0.832713,0.007102,-0.004250,0.028178,-9.328918,-27.032368,-37.540863,,,,,,,
1528191373.481212,0.186682,0.557181,2.926743,-0.028698,-0.235041,0.034221,0.157527,-0.528796,-0.834002,-0.001216,-0.013563,-0.018735,-9.527924,-27.153759,-37.301300,,,,,,,
1528191373.501365,0.180704,0.557546,2.926644,0.042532,-0.339896,-0.024392,0.152504,-0.529106,-0.834738,-0.021813,-0.009438,-0.045129,-9.639893,-26.993717,-37.527985,,,,,,,
1528191373.521518,0.174856,0.558776,2.924924,0.079654,-0.321133,-0.071323,0.147507,-0.530149,-0.834975,-0.010101,-0.012866,-0.022386,-10.185410,-27.141827,-37.282806,,,,,,,
1528191373.541672,0.170114,0.559788,2.922514,0.060341,-0.289872,-0.096979,0.143455,-0.531007,-0.835136,-0.015632,0.001618,-0.012048,-10.337494,-27.242252,-37.188873,,,,,,,
1528191373.561823,0.166277,0.561016,2.918857,0.105114,-0.288206,-0.162049,0.140141,-0.532047,-0.835036,-0.024403,0.013126,-0.008958,-10.597382,-27.467270,-36.893921,,,,,,,
1528191373.581976,0.162951,0.562771,2.915007,0.111212,-0.278780,-0.105464,0.137211,-0.533531,-0.834575,0.034526,-0.010856,0.003124,-10.740356,-27.683670,-36.975769,,,,,,,
,,,,,,,,,,,,,,,,52.333516,4.864690,-0.825161,-1.000000,-1.000000,1528191373.544896,
1528191373.602129,0.157309,0.564466,2.913992,0.066465,-0.300073,0.006593,0.132359,-0.534965,-0.834441,0.015438,-0.015526,0.017211,-10.905167,-27.720299,-36.933075,,,,,,,
1528191373.622283,0.151193,0.564050,2.914262,-0.075728,-0.303018,0.007483,0.127286,-0.534614,-0.835455,0.005236,0.007651,0.025610,-11.126312,-27.649839,-36.609344,,,,,,,
1528191373.642435,0.146166,0.561111,2.914388,-0.184915,-0.189229,-0.035384,0.123314,-0.532127,-0.837636,0.007698,0.011161,0.061314,-11.318588,-27.671585,-36.722260,,,,,,,
1528191373.662588,0.145108,0.555329,2.913281,-0.347521,-0.027114,-0.108227,0.122870,-0.527223,-0.840796,-0.007941,0.005418,0.085013,-11.484161,-27.457621,-36.846375,,,,,,,
1528191373.682740,0.146721,0.545130,2.911441,-0.584848,0.067801,-0.180087,0.125005,-0.518530,-0.845872,-0.024480,-0.036356,0.136369,-11.434891,-27.266949,-36.905884,,,,,,,
1528191373.702893,0.149083,0.529611,2.907945,-0.814993,-0.020081,-0.301002,0.128183,-0.505197,-0.853430,-0.009744,-0.053198,0.087180,-11.356323,-27.077518,-37.517700,,,,,,,
1528191373.723046,0.147856,0.512367,2.904106,-0.785099,-0.278612,-0.261401,0.128400,-0.490242,-0.862076,0.028735,-0.028298,-0.016494,-11.153198,-26.611715,-37.986145,,,,,,,
1528191373.743199,0.139303,0.499725,2.900976,-0.485935,-0.620784,-0.212897,0.121873,-0.479184,-0.869211,0.000716,0.005017,-0.087255,-11.397842,-25.993345,-38.278656,,,,,,,
1528191373.763352,0.126516,0.493160,2.896020,-0.208824,-0.831037,-0.288306,0.111144,-0.473411,-0.873801,0.004579,0.016899,-0.092950,-12.125259,-25.787443,-38.301422,,,,,,,
1528191373.783505,0.110512,0.490003,2.889273,-0.075710,-0.985284,-0.308381,0.097310,-0.470629,-0.876948,0.018520,0.006517,-0.065968,-12.542191,-25.950693,-38.441315,,,,,,,
1528191373.803657,0.092556,0.489072,2.882875,-0.002687,-1.093947,-0.254889,0.081589,-0.469807,-0.878990,0.008438,0.014531,-0.037697,-13.302231,-25.887136,-38.082916,,,,,,,
1528191373.823810,0.070017,0.488729,2.878461,-0.029267,-1.241138,-0.144910,0.061770,-0.469504,-0.880767,0.040784,0.014822,0.006331,-13.709015,-25.842865,-37.725800,,,,,,,
1528191373.843963,0.052186,0.486394,2.876836,-0.150637,-0.673697,-0.037365,0.046113,-0.467441,-0.882820,0.060699,-0.000393,0.063560,-14.814117,-26.247229,-37.325531,,,,,,,
1528191373.864116,0.045527,0.481858,2.877559,-0.286562,-0.141937,0.080845,0.040329,-0.463426,-0.885217,0.054169,0.015459,0.006539,-15.786987,-26.146288,-37.239319,,,,,,,
1528191373.884269,0.045485,0.474475,2.882678,-0.421675,0.262143,0.314403,0.040446,-0.456871,-0.888613,0.080174,-0.004921,-0.002424,-15.562469,-25.799860,-37.630371,,,,,,,
1528191373.904422,0.046806,0.465053,2.894307,-0.539668,0.303208,0.575823,0.041820,-0.448470,-0.892818,0.062611,0.009185,-0.026585,-15.904861,-25.170258,-37.883820,,,,,,,
1528191373.924574,0.044229,0.455681,2.908756,-0.387511,0.128177,0.635843,0.039703,-0.440074,-0.897083,-0.012939,-0.048528,-0.087597,-16.101517,-24.841343,-38.420654,,,,,,,
1528191373.944727,0.037225,0.455307,2.921817,0.158593,-0.237697,0.535193,0.033425,-0.439738,-0.897503,-0.072762,-0.065160,-0.155002,-16.452545,-24.720812,-38.430634,,,,,,,
1528191373.964880,0.022280,0.461928,2.930734,0.355532,-0.681455,0.333750,0.019943,-0.445674,-0.894973,-0.064621,0.042263,-0.054567,-16.994263,-24.879145,-38.192688,,,,,,,
1528191373.985033,0.005232,0.469043,2.935673,0.337458,-0.733471,0.169320,0.004667,-0.452033,-0.891988,-0.061231,0.069816,-0.005228,-17.712845,-25.017132,-37.738037,,,,,,,
1528191374.005186,-0.008232,0.475559,2.938265,0.318656,-0.514564,0.097710,-0.007318,-0.457836,-0.889006,-0.057104,0.022991,0.030486,-18.063446,-25.136652,-37.421906,,,,,,,
1528191374.025339,-0.022074,0.481354,2.939066,0.276108,-0.919205,-0.009011,-0.019564,-0.462979,-0.886153,-0.031873,0.015622,-0.057192,-18.759583,-25.451174,-37.001190,,,,,,,
1528191374.045491,-0.050796,0.487843,2.939916,0.350881,-1.556722,0.053158,-0.044851,-0.468721,-0.882206,-0.009058,-0.035231,-0.019726,-19.593307,-25.791777,-36.276886,,,,,,,
1528191374.065644,-0.077431,0.493509,2.941256,0.211209,-1.028556,0.030430,-0.068123,-0.473719,-0.878037,0.007241,0.014307,0.083222,-20.458374,-25.884666,-35.577911,,,,,,,
1528191374.085797,-0.088470,0.494054,2.941375,-0.087653,-0.277244,0.009599,-0.077789,-0.474199,-0.876974,0.019974,0.025942,0.054647,-20.994965,-25.863762,-35.275085,,,,,,,
1528191374.105950,-0.090501,0.488460,2.943176,-0.375547,0.028251,0.189593,-0.079808,-0.469266,-0.879442,0.044454,0.014173,-0.000059,-21.166428,-25.653906,-35.250793,,,,,,,
1528191374.126103,-0.092923,0.477168,2.950338,-0.606767,0.023307,0.479712,-0.082425,-0.459265,-0.884466,0.048764,0.009238,0.017538,-21.008270,-25.382528,-35.609802,,,,,,,
1528191374.146256,-0.098975,0.462024,2.963498,-0.728313,-0.012163,0.749685,-0.088453,-0.445760,-0.890771,0.064711,0.003667,0.070092,-21.496124,-24.566448,-36.254150,,,,,,,
1528191374.166408,-0.107262,0.445033,2.981270,-0.770211,-0.029606,0.952496,-0.096628,-0.430488,-0.897409,0.051859,0.015952,0.063516,-22.074631,-23.362741,-36.586243,,,,,,,
1528191374.186561,-0.118689,0.426691,3.003684,-0.812509,-0.134558,1.205503,-0.107794,-0.413861,-0.903935,0.036215,0.025830,0.001897,-22.769836,-22.678135,-36.998138,,,,,,,
1528191374.206714,-0.129688,0.405548,3.030697,-0.929600,0.166337,1.417753,-0.118835,-0.394523,-0.911169,0.023544,0.019858,-0.010065,-23.351120,-21.273726,-37.910065,,,,,,,
1528191374.226867,-0.135957,0.383418,3.059591,-0.875577,0.154440,1.484017,-0.125698,-0.374092,-0.918833,-0.038746,0.044335,-0.109762,-23.919556,-19.983437,-38.534088,,,,,,,
1528191374.247020,-0.149497,0.364134,3.091418,-0.640470,-0.189792,1.653087,-0.139175,-0.356141,-0.924010,-0.022706,-0.005249,-0.061052,-24.495605,-18.928783,-39.207672,,,,,,,
1528191374.267173,-0.165326,0.349650,3.125704,-0.351303,-0.146460,1.704686,-0.154616,-0.342569,-0.926682,-0.051439,-0.004966,-0.010757,-25.324493,-17.157143,-39.133636,,,,,,,
1528191374.287326,-0.177508,0.339676,-3.121484,-0.120079,0.073132,1.766849,-0.166488,-0.333182,-0.928047,-0.039445,-0.021295,0.040397,-25.927780,-16.134243,-39.956177,,,,,,,
1528191374.307478,-0.190574,0.332571,-3.083673,0.021781,-0.133148,1.819393,-0.179043,-0.326474,-0.928093,-0.041950,-0.006061,0.002511,-26.435974,-15.116119,-39.957703,,,,,,,
1528191374.327631,-0.206397,0.327394,-3.050152,0.083824,-0.234662,1.317689,-0.194049,-0.321576,-0.926786,0.011386,0.034268,0.041761,-27.003784,-14.201233,-40.122803,,,,,,,
1528191374.347784,-0.212163,0.328307,-3.036522,0.230521,-0.006524,0.272579,-0.199328,-0.322441,-0.925364,0.026049,-0.084282,-0.031026,-27.467438,-13.769371,-39.988312,,,,,,,
1528191374.367937,-0.214953,0.331649,-3.032820,0.170497,-0.122492,0.140131,-0.201678,-0.325603,-0.923747,-0.027463,0.022746,0.002284,-27.542130,-13.641663,-40.035400,,,,,,,
1528191374.388090,-0.219599,0.334731,-3.026776,0.240089,-0.123915,0.281157,-0.205748,-0.328515,-0.921816,0.008314,0.074182,-0.019041,-27.497055,-13.567616,-39.711456,,,,,,,
1528191374.408243,-0.225429,0.338842,-3.018752,0.295895,-0.213360,0.349576,-0.210815,-0.332395,-0.919277,0.035339,0.027875,0.008388,-27.767761,-13.755653,-39.823792,,,,,,,
1528191374.428395,-0.236482,0.343636,-3.009534,0.385519,-0.489663,0.349755,-0.220586,-0.336912,-0.915331,0.039403,-0.048372,-0.026426,-28.189392,-13.615993,-39.324432,,,,,,,
1528191374.448548,-0.251914,0.352365,-3.001858,0.550643,-0.724840,0.186673,-0.233943,-0.345118,-0.908935,0.016231,-0.008962,-0.007920,-28.522934,-13.642841,-38.995972,,,,,,,
1528191374.468701,-0.268711,0.361605,-2.995680,0.475142,-0.696002,0.151328,-0.248320,-0.353776,-0.901764,0.000716,-0.001342,0.029007,-29.090454,-14.017441,-38.370392,,,,,,,
1528191374.488854,-0.282088,0.368928,-2.990738,0.386374,-0.492648,0.097791,-0.259632,-0.360616,-0.895849,-0.036724,-0.020457,0.037070,-29.850113,-13.970512,-37.630432,,,,,,,
1528191374.509007,-0.290819,0.375096,-2.987887,0.300744,-0.381678,0.000502,-0.266801,-0.366362,-0.891401,-0.065398,-0.011247,0.037824,-30.013916,-14.469528,-37.552917,,,,,,,
1528191374.529160,-0.301727,0.381474,-2.987082,0.348997,-0.630841,-0.083722,-0.275808,-0.372289,-0.886188,-0.036845,-0.006922,-0.007290,-30.067871,-14.612591,-37.267853,,,,,,,
1528191374.549312,-0.318285,0.390743,-2.986602,0.503767,-0.929101,-0.142183,-0.289351,-0.380875,-0.878185,-0.000887,-0.005004,-0.029438,-30.460083,-14.922825,-36.628998,,,,,,,
1528191374.569465,-0.340130,0.403226,-2.985841,0.646904,-1.127390,-0.176128,-0.306854,-0.392388,-0.867105,0.016937,-0.015632,-0.024374,-31.198669,-15.182991,-36.018372,,,,,,,
1528191374.589618,-0.362618,0.417198,-2.984375,0.668058,-1.008824,-0.170789,-0.324298,-0.405200,-0.854776,0.007968,0.005374,0.001947,-31.841949,-15.780838,-34.943024,,,,,,,
1528191374.609771,-0.379234,0.428903,-2.982629,0.506723,-0.696714,-0.090989,-0.336676,-0.415874,-0.844806,-0.007898,0.016612,0.016910,-32.322830,-16.457088,-34.108734,,,,,,,
1528191374.629924,-0.388975,0.437352,-2.980967,0.360896,-0.304261,-0.116882,-0.343545,-0.423542,-0.838205,-0.033164,-0.007259,0.004389,-33.085541,-16.825724,-33.375763,,,,,,,
1528191374.650077,-0.392982,0.444244,-2.982688,0.263084,-0.237301,-0.255819,-0.345774,-0.429776,-0.834105,-0.068716,-0.003910,-0.008958,-33.159180,-17.106337,-32.963623,,,,,,,
1528191374.670229,-0.398904,0.452539,-2.986950,0.350236,-0.545281,-0.380557,-0.349311,-0.437251,-0.828729,-0.020608,-0.004552,-0.064184,-33.177048,-17.356197,-32.602142,,,,,,,
1528191374.690382,-0.415384,0.464689,-2.991287,0.554278,-1.131019,-0.402579,-0.360750,-0.448145,-0.817939,0.079897,-0.005651,-0.088235,-33.148056,-17.821890,-31.916504,,,,,,,
1528191374.710536,-0.443042,0.479197,-2.992011,0.689226,-1.525048,-0.292351,-0.380404,-0.461067,-0.801691,0.103106,-0.023919,-0.026175,-33.942474,-18.589827,-30.973419,,,,,,,
1528191374.730688,-0.473268,0.494163,-2.989950,0.674788,-1.258436,-0.213427,-0.401268,-0.474295,-0.783599,0.161446,0.091970,0.155974,-34.418549,-19.311085,-29.494293,,,,,,,
1528191374.750841,-0.493307,0.503488,-2.989109,0.280911,-0.810672,-0.163849,-0.414776,-0.482483,-0.771472,0.002362,-0.022766,0.039813,-35.313873,-20.155771,-28.626190,,,,,,,
1528191374.770994,-0.502447,0.507737,-2.991006,0.089935,-0.362558,-0.172736,-0.420819,-0.486201,-0.765845,0.000027,0.011179,0.029578,-35.439041,-19.936251,-27.458557,,,,,,,
1528191374.791147,-0.509984,0.510355,-2.992226,0.115090,-0.479285,-0.066972,-0.425957,-0.488487,-0.761538,0.031669,-0.032754,-0.036604,-35.785614,-20.051292,-27.289368,,,,,,,
1528191374.811299,-0.525009,0.514073,-2.991259,0.220796,-0.883634,-0.073149,-0.436437,-0.491728,-0.753475,0.001607,-0.010835,-0.063420,-36.176437,-20.045601,-26.726379,,,,,,,
1528191374.831452,-0.551453,0.521105,-2.992515,0.307853,-1.694895,-0.345102,-0.454384,-0.497839,-0.738708,-0.039391,0.138738,-0.187073,-36.504700,-20.388470,-26.065063,,,,,,,
1528191374.851605,-0.594929,0.533477,-2.996293,0.478030,-2.568571,-0.540069,-0.482571,-0.508530,-0.713105,-0.004184,-0.014922,-0.195983,-37.403946,-21.031088,-25.091370,,,,,,,
1528191374.871758,-0.647717,0.548024,-3.003389,0.337843,-2.834430,-0.720617,-0.515006,-0.521002,-0.680678,-0.029382,-0.027216,-0.099656,-38.298889,-21.416054,-22.511444,,,,,,,
1528191374.891912,-0.693865,0.560211,-3.013377,0.127624,-2.275734,-0.681505,-0.541758,-0.531365,-0.651265,0.000376,-0.017585,0.068517,-39.380402,-21.955887,-20.382965,,,,,,,
1528191374.912064,-0.721692,0.567864,-3.025194,-0.131904,-1.344952,-0.587032,-0.556966,-0.537832,-0.632868,0.012349,-0.019098,0.161143,-39.701492,-22.545948,-18.120605,,,,,,,
1528191374.932216,-0.730433,0.570898,-3.039338,-0.358506,-0.528114,-0.498891,-0.561385,-0.540388,-0.626757,0.033629,-0.032061,0.174304,-39.878998,-23.342304,-16.286163,,,,,,,
1528191374.952369,-0.730543,0.568704,-3.053178,-0.519823,-0.383738,-0.267446,-0.562244,-0.538540,-0.627577,0.051929,-0.042606,0.059584,-39.776733,-23.512001,-16.034454,,,,,,,
1528191374.972522,-0.736918,0.562178,-3.066136,-0.651194,-0.892212,-0.177802,-0.568582,-0.533031,-0.626569,0.005167,-0.036519,-0.055102,-39.839172,-23.418058,-15.661896,,,,,,,
1528191374.992676,-0.753889,0.556527,-3.083141,-0.696756,-1.475783,-0.468131,-0.581186,-0.528241,-0.619016,-0.055151,0.047833,-0.050936,-40.179977,-23.747166,-14.893219,,,,,,,
1528191375.012828,-0.773014,0.557144,-3.105628,-0.565825,-1.501138,-0.836302,-0.592690,-0.528764,-0.607556,-0.043403,0.057649,-0.004063,-40.110336,-24.006948,-13.790192,,,,,,,
1528191375.032981,-0.786057,0.565207,-3.128773,-0.291099,-1.078580,-1.027169,-0.597528,-0.535590,-0.596741,-0.033499,0.027824,0.008591,-39.825058,-24.491083,-12.856873,,,,,,,
1528191375.053133,-0.790031,0.579993,3.133681,0.020004,-0.579428,-1.203061,-0.594203,-0.548018,-0.588723,-0.064656,0.000777,-0.040610,-39.308319,-25.246582,-12.199280,,,,,,,
1528191375.073287,-0.788818,0.600796,3.114597,0.231568,-0.465680,-1.312799,-0.585272,-0.565300,-0.581283,-0.040124,0.020362,-0.059785,-38.613190,-26.301718,-11.776520,,,,,,,
1528191375.093439,-0.790508,0.622771,3.096785,0.253224,-0.646837,-1.248668,-0.577284,-0.583288,-0.571414,0.031004,0.032202,-0.035733,-37.865158,-27.114141,-11.193298,,,,,,,
1528191375.113592,-0.792653,0.642260,3.079935,0.149756,-0.530784,-1.100418,-0.570303,-0.599006,-0.562088,0.052999,-0.001610,0.035538,-37.209091,-27.666729,-10.744873,,,,,,,
1528191375.133745,-0.787958,0.656187,3.062579,-0.105544,-0.091723,-0.887310,-0.561689,-0.610100,-0.558820,0.090925,-0.033958,0.131589,-36.554733,-28.690922,-10.486420,,,,,,,
1528191375.153898,-0.771932,0.661241,3.044558,-0.453187,0.408527,-0.525921,-0.550504,-0.614097,-0.565533,0.101773,-0.062035,0.117810,-36.037064,-28.981892,-10.621735,,,,,,,
1528191375.174052,-0.752250,0.655004,3.027653,-0.811425,0.444342,-0.132413,-0.541874,-0.609162,-0.579044,0.094226,-0.046432,0.050266,-35.486282,-29.063732,-11.411713,,,,,,,
1528191375.194203,-0.735006,0.640854,3.010312,-1.060502,0.250588,-0.004556,-0.537535,-0.597880,-0.594636,0.025969,0.018275,0.046907,-35.650330,-28.949665,-11.975281,,,,,,,
1528191375.214356,-0.720503,0.625299,2.990895,-1.077961,0.116459,-0.119860,-0.534927,-0.585340,-0.609285,0.003692,0.016035,0.024934,-35.457535,-28.747702,-12.881592,,,,,,,
1528191375.234509,-0.707249,0.613843,2.971154,-0.849888,0.073356,-0.286114,-0.531127,-0.576013,-0.621378,0.001342,-0.031806,-0.015295,-35.361725,-28.674469,-13.381256,,,,,,,
1528191375.254663,-0.690149,0.610310,2.955271,-0.345548,0.667119,-0.431893,-0.521717,-0.573121,-0.631934,0.049167,-0.076293,-0.030923,-35.076706,-28.755899,-13.864349,,,,,,,
1528191375.274815,-0.664024,0.614591,2.945881,0.063624,1.158138,-0.390927,-0.503514,-0.576624,-0.643409,0.040822,-0.026235,-0.002373,-34.492538,-29.038626,-14.714813,,,,,,,
1528191375.294968,-0.641086,0.620024,2.944819,0.243764,1.074509,-0.066108,-0.486744,-0.581055,-0.652267,0.026157,0.001114,-0.014328,-33.854980,-29.125736,-15.275909,,,,,,,
1528191375.315120,-0.625967,0.623137,2.949404,0.197337,0.764318,0.091922,-0.475765,-0.583586,-0.658083,-0.049077,-0.008745,-0.040816,-33.487396,-29.203226,-15.813110,,,,,,,
1528191375.335274,-0.612948,0.622686,2.951248,-0.105023,0.649713,0.061670,-0.467308,-0.583219,-0.664436,-0.024543,-0.016665,-0.023888,-33.239822,-29.274544,-16.438660,,,,,,,
1528191375.355426,-0.603599,0.616763,2.947049,-0.463803,0.109498,0.006897,-0.463029,-0.578398,-0.671608,0.006379,-0.034548,-0.119606,-33.148651,-29.169409,-16.768219,,,,,,,
1528191375.375579,-0.597408,0.608788,2.936247,-0.595910,0.027172,-0.249492,-0.461443,-0.571873,-0.678254,-0.099409,0.082371,-0.010222,-33.199661,-29.287043,-17.236847,,,,,,,
1528191375.395732,-0.585230,0.605991,2.920525,-0.360940,0.203486,-0.557791,-0.454030,-0.569577,-0.685154,-0.060679,0.058697,-0.024013,-32.813065,-29.295551,-17.513031,,,,,,,
1528191375.415885,-0.574155,0.610673,2.904985,-0.044807,0.035700,-0.680134,-0.444961,-0.573419,-0.687894,0.045211,0.011499,-0.041477,-32.393875,-29.474836,-17.617371,,,,,,,
1528191375.436038,-0.566534,0.618288,2.894962,0.172676,0.187512,-0.440744,-0.437350,-0.579641,-0.687560,0.084963,0.003592,0.078231,-31.789185,-29.804468,-17.781555,,,,,,,
1528191375.456190,-0.560557,0.624616,2.893489,0.256432,0.290483,-0.063774,-0.431273,-0.584786,-0.687042,0.083098,-0.036155,0.028839,-31.263992,-30.203396,-17.631165,,,,,,,
1528191375.476343,-0.556601,0.626521,2.900817,0.229546,0.529537,0.329033,-0.427963,-0.586330,-0.687795,0.043426,-0.000340,0.065160,-31.304062,-30.002930,-17.627716,,,,,,,
1528191375.496496,-0.547933,0.625364,2.912816,0.191481,0.909765,0.489049,-0.422339,-0.585393,-0.692057,0.003500,-0.005519,0.019511,-31.213257,-30.023521,-17.963470,,,,,,,
1528191375.516649,-0.533726,0.623039,2.925601,0.152952,1.165825,0.500683,-0.413155,-0.583506,-0.699157,-0.031654,0.001368,0.000412,-31.229202,-29.829769,-18.711853,,,,,,,
1528191375.536803,-0.513744,0.620107,2.938434,0.117467,1.538041,0.546457,-0.399943,-0.581122,-0.708760,0.023478,0.001730,0.040685,-30.903778,-29.595152,-19.453308,,,,,,,
1528191375.556955,-0.484088,0.615223,2.952553,0.016521,2.073238,0.664724,-0.380067,-0.577140,-0.722811,0.079820,-0.026650,0.048464,-30.861984,-29.317488,-20.251099,,,,,,,
1528191375.577107,-0.449999,0.606880,2.968227,-0.150712,2.085533,0.813980,-0.357293,-0.570307,-0.739655,0.061974,-0.016500,0.030014,-30.404358,-29.033556,-21.652405,,,,,,,
1528191375.597260,-0.420448,0.594179,2.984475,-0.385143,1.819962,0.890618,-0.338212,-0.559828,-0.756441,-0.010161,0.029219,0.048098,-29.835022,-28.505121,-23.119568,,,,,,,
1528191375.617414,-0.392659,0.577776,2.997992,-0.596597,1.775254,0.771851,-0.320534,-0.546163,-0.773927,-0.010292,0.056218,0.074708,-29.724213,-28.069136,-24.377777,,,,,,,
1528191375.637566,-0.358718,0.560878,3.005596,-0.678953,1.927933,0.528285,-0.297285,-0.531930,-0.792888,-0.007768,0.059731,0.035289,-29.120682,-27.323927,-25.809143,,,,,,,
1528191375.657719,-0.324479,0.544924,3.013219,-0.596248,1.892189,0.654382,-0.272640,-0.518353,-0.810541,0.042217,0.037426,0.023950,-28.278442,-26.587799,-27.394318,,,,,,,
1528191375.677872,-0.292140,0.529600,3.028697,-0.491858,2.077412,0.976906,-0.248549,-0.505188,-0.826442,0.055327,0.022309,0.056850,-27.844971,-26.042040,-28.949310,,,,,,,
1528191375.698024,-0.261596,0.514517,3.049067,-0.476521,1.892998,1.037817,-0.225138,-0.492115,-0.840913,-0.024526,0.013279,-0.063460,-27.175613,-25.318003,-30.716400,,,,,,,
1528191375.718177,-0.237044,0.500323,3.065754,-0.517335,1.474158,0.765621,-0.206047,-0.479709,-0.852891,-0.057412,0.011646,-0.055877,-26.663834,-24.497814,-32.164124,,,,,,,
1528191375.738330,-0.217400,0.487381,3.076187,-0.515778,1.064140,0.496665,-0.190577,-0.468314,-0.862764,-0.050116,0.007102,-0.116438,-26.124878,-23.833143,-33.069672,,,,,,,
1528191375.758483,-0.200720,0.477101,3.082917,-0.365081,0.997801,0.366617,-0.177111,-0.459205,-0.870495,-0.038755,0.011482,-0.075504,-25.409180,-23.224339,-33.825165,,,,,,,
1528191375.778636,-0.181199,0.471124,3.090645,-0.147873,1.243195,0.422347,-0.160576,-0.453888,-0.876470,-0.026023,-0.002350,-0.039210,-24.914688,-22.695263,-34.740082,,,,,,,
1528191375.798789,-0.157279,0.468243,3.100315,-0.045159,1.482707,0.453387,-0.139772,-0.451319,-0.881348,-0.018783,0.002436,-0.007614,-24.425201,-22.500919,-35.642548,,,,,,,
1528191375.818941,-0.131693,0.465368,3.109466,-0.117660,1.423334,0.402059,-0.117349,-0.448752,-0.885918,-0.017554,0.016654,-0.008904,-23.561752,-22.145796,-36.496063,,,,,,,
1528191375.839094,-0.111195,0.461561,3.116810,-0.151725,1.015447,0.307093,-0.099354,-0.445346,-0.889828,-0.019054,0.017093,-0.044971,-22.793533,-21.928953,-37.074463,,,,,,,
1528191375.859247,-0.098051,0.459372,3.121631,-0.029808,0.622569,0.182413,-0.087746,-0.443386,-0.892025,-0.007195,0.019573,-0.041813,-22.016449,-21.542645,-37.606689,,,,,,,
1528191375.879400,-0.089078,0.460054,3.124594,0.069014,0.517896,0.120646,-0.079711,-0.443997,-0.892475,-0.000199,0.016140,-0.001354,-21.439880,-21.249306,-37.855652,,,,,,,
1528191375.899553,-0.076843,0.459516,3.128540,-0.099668,0.815870,0.217517,-0.068804,-0.443515,-0.893622,0.016314,0.017764,0.054846,-21.101547,-21.234333,-38.154846,,,,,,,
1528191375.919706,-0.059554,0.452945,3.134258,-0.427988,1.049454,0.307801,-0.053517,-0.437616,-0.897568,0.006276,-0.002799,0.040054,-20.490707,-21.048145,-38.598572,,,,,,,
1528191375.939859,-0.040717,0.442816,3.140157,-0.466348,1.085084,0.251162,-0.036780,-0.428485,-0.902800,-0.017557,0.007434,-0.055132,-19.762680,-20.735292,-39.406189,,,,,,,
1528191375.960011,-0.020495,0.436186,-3.139272,-0.203618,1.049228,0.176764,-0.018574,-0.422486,-0.906179,0.010350,-0.003830,-0.115260,-19.178909,-20.283592,-39.964691,,,,,,,
1528191375.980164,-0.000554,0.436004,-3.136245,0.089176,1.083447,0.120533,-0.000502,-0.422321,-0.906446,0.022566,0.023243,-0.076968,-17.582901,-19.965818,-40.675171,,,,,,,
1528191376.000317,0.022597,0.438852,-3.133560,0.138252,1.279699,0.128021,0.020454,-0.424900,-0.905009,0.028649,0.021290,0.011073,-16.576172,-19.743368,-41.104889,,,,,,,
1528191376.020470,0.046789,0.440480,-3.130440,0.032316,1.248815,0.155658,0.042307,-0.426374,-0.903557,-0.007563,0.002759,0.033424,-15.342499,-19.753761,-41.387543,,,,,,,
1528191376.040623,0.070143,0.439736,-3.126092,-0.098440,1.249914,0.218480,0.063418,-0.425700,-0.902639,-0.028536,-0.000142,0.059759,-14.330887,-19.553684,-41.895813,,,,,,,
1528191376.060776,0.093783,0.436311,-3.119919,-0.250448,1.363963,0.286595,0.084873,-0.422599,-0.902334,-0.004291,0.001289,0.066106,-13.612213,-19.475931,-42.445923,,,,,,,
1528191376.080928,0.120620,0.430019,-3.112208,-0.397687,1.546038,0.325868,0.109373,-0.416888,-0.902353,0.013308,0.008364,0.016718,-12.218414,-19.306499,-42.632202,,,,,,,
1528191376.101081,0.148167,0.422939,-3.103939,-0.369848,1.519273,0.325917,0.134617,-0.410442,-0.901895,-0.005009,0.004757,-0.032721,-10.997406,-18.657026,-43.527252,,,,,,,
1528191376.121234,0.174536,0.418705,-3.095735,-0.200463,1.447972,0.338951,0.158651,-0.406577,-0.899736,-0.020467,-0.010384,-0.025328,-9.711792,-18.170664,-44.004028,,,,,,,
1528191376.141387,0.198916,0.418062,-3.087663,-0.049687,1.321636,0.355191,0.180589,-0.405990,-0.895856,-0.034547,-0.021424,-0.022585,-8.744476,-18.158598,-44.396362,,,,,,,
1528191376.161540,0.220379,0.419224,-3.080953,0.008892,1.105936,0.265624,0.199670,-0.407052,-0.891314,-0.079110,-0.015205,-0.004652,-7.924698,-17.812166,-44.462860,,,,,,,
1528191376.181693,0.236173,0.420076,-3.078690,0.022569,0.645330,0.004175,0.213640,-0.407830,-0.887712,-0.079302,-0.023597,-0.033568,-7.263870,-17.817738,-44.542969,,,,,,,
1528191376.201846,0.245676,0.420659,-3.081889,0.099738,0.297860,-0.199571,0.222009,-0.408362,-0.885410,-0.051278,-0.026544,-0.033916,-6.610428,-17.921789,-44.394470,,,,,,,
1528191376.221998,0.253638,0.422757,-3.088223,0.198763,0.284733,-0.261363,0.228836,-0.410276,-0.882784,-0.013397,-0.010973,0.007311,-6.275070,-18.087969,-44.554779,,,,,,,
1528191376.242151,0.263360,0.424295,-3.093744,0.069728,0.436555,-0.184693,0.237243,-0.411678,-0.879907,0.000184,0.019527,0.050332,-5.679123,-18.284113,-44.379913,,,,,,,
1528191376.262304,0.275506,0.421695,-3.095395,-0.216063,0.648633,-0.055916,0.248202,-0.409308,-0.877987,0.005582,0.014212,0.061337,-5.292709,-18.080700,-44.579987,,,,,,,
1528191376.282457,0.290106,0.414847,-3.093742,-0.391853,0.821984,-0.025212,0.261790,-0.403050,-0.876936,0.022527,-0.003399,0.011304,-4.658325,-18.003693,-44.703796,,,,,,,
1528191376.302610,0.306764,0.407742,-3.093099,-0.287456,0.807881,-0.101951,0.277219,-0.396537,-0.875161,0.033404,0.001914,-0.043021,-4.115387,-17.540468,-44.879395,,,,,,,
1528191376.322763,0.319663,0.404251,-3.093857,-0.075426,0.479263,-0.059966,0.288917,-0.393330,-0.872822,0.038490,0.003056,-0.059231,-3.489563,-17.599001,-45.287781,,,,,,,
1528191376.342916,0.324092,0.404443,-3.093605,0.024361,0.097937,0.055553,0.292756,-0.393507,-0.871462,0.060622,0.009245,0.009416,-3.183441,-17.551464,-44.887085,,,,,,,
1528191376.363068,0.324113,0.404240,-3.090968,-0.113762,0.083797,0.141862,0.292800,-0.393320,-0.871531,0.049898,0.013682,0.064829,-2.919312,-17.456066,-45.133759,,,,,,,
1528191376.383221,0.327623,0.401213,-3.085830,-0.269789,0.406876,0.189638,0.296239,-0.390535,-0.871621,0.036433,0.014010,0.041131,-2.676132,-17.451221,-45.268890,,,,,,,
1528191376.403374,0.337317,0.396458,-3.079631,-0.325537,0.693070,0.187364,0.305285,-0.386153,-0.870451,0.028592,-0.004029,0.005644,-2.440201,-16.898289,-45.240326,,,,,,,
1528191376.423527,0.349318,0.392076,-3.074073,-0.267950,0.673065,0.160751,0.316286,-0.382107,-0.868307,0.026869,-0.013584,-0.029704,-1.907349,-16.638634,-45.444153,,,,,,,
1528191376.443680,0.360700,0.388085,-3.068579,-0.283016,0.692322,0.169266,0.326684,-0.378416,-0.866071,0.019722,-0.024889,-0.000766,-1.343857,-16.433815,-45.593109,,,,,,,
1528191376.463833,0.373121,0.383959,-3.065221,-0.205334,0.622645,-0.017458,0.337982,-0.374595,-0.863392,-0.109054,-0.029123,-0.040172,-0.503815,-16.375427,-45.827820,,,,,,,
1528191376.483986,0.383099,0.380985,-3.068624,-0.005295,0.324661,-0.287261,0.346995,-0.371835,-0.861006,-0.044062,0.011865,-0.069230,-0.190857,-16.138489,-45.847748,,,,,,,
1528191376.504139,0.390530,0.379930,-3.075320,0.096681,0.202449,-0.288170,0.353533,-0.370856,-0.858766,0.001036,-0.012903,-0.001555,0.315948,-15.944046,-45.899597,,,,,,,
1528191376.524291,0.394996,0.379376,-3.081277,0.037245,0.079183,-0.258320,0.357443,-0.370341,-0.857368,-0.015418,-0.017079,0.047737,0.409790,-16.036579,-45.969452,,,,,,,
1528191376.544444,0.398961,0.375109,-3.085563,-0.210584,0.140348,-0.270385,0.361450,-0.366374,-0.857393,-0.047989,-0.012776,0.069612,0.475540,-16.183643,-45.712677,,,,,,,
1528191376.564597,0.400585,0.368673,-3.088493,-0.205601,-0.065556,-0.228692,0.363754,-0.360378,-0.858959,-0.027176,-0.035466,-0.012379,0.672913,-16.011238,-45.790619,,,,,,,
1528191376.584750,0.396756,0.367243,-3.093033,0.171805,-0.356390,-0.235625,0.360661,-0.359044,-0.860819,-0.034520,-0.022227,-0.060583,0.538223,-15.899094,-45.920013,,,,,,,
1528191376.604903,0.393935,0.371617,-3.102651,0.467483,-0.253754,-0.396498,0.357625,-0.363123,-0.860375,-0.035893,0.015360,-0.028663,0.486542,-16.211575,-45.864014,,,,,,,
1528191376.625056,0.400750,0.378437,-3.121200,0.782096,0.186434,-0.826470,0.362506,-0.369469,-0.855618,-0.068805,0.147545,-0.031193,0.431381,-16.543320,-45.432770,,,,,,,
1528191376.645209,0.418626,0.392236,3.139370,1.187423,0.557809,-0.565543,0.375634,-0.382256,-0.844262,-0.009133,-0.112328,-0.092216,0.793930,-17.249983,-45.118530,,,,,,,
1528191376.665361,0.439817,0.411654,3.115884,1.349178,0.642984,-0.617676,0.390204,-0.400125,-0.829240,-0.017722,0.084528,-0.036239,1.446365,-18.137621,-44.617462,,,,,,,
1528191376.685514,0.463261,0.428575,3.092102,1.123948,0.643546,-0.550693,0.406452,-0.415575,-0.813691,0.016873,-0.008207,-0.042114,2.298264,-19.481956,-43.616913,,,,,,,
1528191376.705668,0.481366,0.441762,3.074268,0.853168,0.463108,-0.315036,0.418543,-0.427533,-0.801271,-0.015086,0.017712,-0.008330,3.189545,-20.244446,-43.036713,,,,,,,
1528191376.725821,0.495049,0.453088,3.062242,0.697943,0.442124,-0.173226,0.427139,-0.437744,-0.791158,0.069168,0.027465,0.007848,3.682556,-20.937969,-42.776428,,,,,,,
1528191376.745974,0.509276,0.464594,3.052092,0.759001,0.464621,-0.085607,0.435867,-0.448060,-0.780552,0.026826,0.029939,0.011326,4.309387,-21.395311,-42.190063,,,,,,,
1528191376.766127,0.521107,0.479423,3.040944,0.966879,0.247031,-0.066076,0.441714,-0.461267,-0.769493,-0.002994,0.030374,-0.006966,5.072220,-22.041811,-42.085632,,,,,,,
1528191376.786280,0.531017,0.496808,3.026520,1.093475,0.131841,-0.149171,0.445189,-0.476621,-0.758048,-0.020583,0.029997,0.019522,5.428787,-22.791447,-41.412781,,,,,,,
1528191376.806432,0.539782,0.513303,3.009692,1.056071,-0.034824,-0.240995,0.447715,-0.491057,-0.747270,-0.003730,0.051863,0.003114,5.422577,-23.939865,-40.716797,,,,,,,
1528191376.826585,0.547999,0.529348,2.991721,1.028363,-0.023136,-0.239965,0.449676,-0.504971,-0.736745,0.001130,-0.024326,-0.023509,5.993668,-24.317373,-39.940002,,,,,,,
1528191376.846738,0.556751,0.541821,2.977447,0.727464,0.122368,-0.166714,0.452744,-0.515697,-0.727377,0.001770,-0.026768,0.039435,5.811081,-24.986624,-39.441406,,,,,,,
1528191376.866891,0.562181,0.550114,2.968351,0.465266,-0.023973,-0.057036,0.454391,-0.522784,-0.721265,-0.008148,0.005435,-0.021914,6.217346,-25.539555,-39.065277,,,,,,,
1528191376.887044,0.561141,0.557928,2.963992,0.427628,-0.252249,0.098851,0.451453,-0.529430,-0.718257,-0.009146,-0.024037,-0.035879,6.030869,-26.074432,-38.689056,,,,,,,
1528191376.907197,0.556075,0.567261,2.960408,0.500784,-0.367248,0.128861,0.445181,-0.537324,-0.716306,-0.005591,0.027375,-0.005480,5.883087,-26.433434,-38.542969,,,,,,,
1528191376.927350,0.549374,0.576873,2.956971,0.486326,-0.534424,0.159852,0.437654,-0.545405,-0.714836,-0.016511,0.021144,-0.019799,5.525269,-26.657978,-38.308929,,,,,,,
1528191376.947502,0.535562,0.584990,2.954582,0.332735,-0.763177,0.077499,0.425465,-0.552191,-0.716981,-0.012715,-0.022088,0.012788,5.134247,-27.020720,-38.059540,,,,,,,
1528191376.967655,0.528106,0.589926,2.951419,0.242734,-0.303330,-0.009206,0.418730,-0.556299,-0.717771,0.012758,-0.037298,0.075803,4.580688,-27.187330,-37.677460,,,,,,,
1528191376.987808,0.522592,0.592867,2.949447,0.125545,-0.391543,0.053663,0.413947,-0.558741,-0.718647,-0.007820,0.060771,-0.012508,4.267975,-27.425556,-37.645599,,,,,,,
1528191377.007961,0.511547,0.595282,2.951485,0.054002,-0.495898,0.161431,0.405323,-0.560742,-0.721997,0.055874,-0.039630,-0.009830,3.967499,-27.630968,-37.675232,,,,,,,
1528191377.028114,0.502481,0.598584,2.951393,0.213304,-0.452201,0.005740,0.397867,-0.563473,-0.724015,0.009512,-0.007526,-0.030181,2.963654,-27.753786,-37.537720,,,,,,,
1528191377.048267,0.494343,0.602331,2.945465,0.278615,-0.665064,-0.205521,0.390958,-0.566565,-0.725365,-0.073331,0.061407,-0.018012,2.821304,-27.986414,-37.335968,,,,,,,
1528191377.068420,0.483407,0.603661,2.937925,0.156921,-0.702345,-0.207801,0.382651,-0.567660,-0.728930,0.034799,-0.014677,0.085665,2.228012,-28.065414,-37.056702,,,,,,,
1528191377.088572,0.473228,0.604512,2.936067,0.026925,-0.510524,0.046092,0.374991,-0.568360,-0.732357,0.123162,-0.055495,0.036892,1.890320,-28.133125,-37.057709,,,,,,,
1528191377.108725,0.463183,0.606365,2.938484,0.062381,-0.373105,0.167815,0.367145,-0.569885,-0.735143,0.025891,0.056533,-0.011638,1.339859,-28.079990,-37.302887,,,,,,,
1528191377.128878,0.455659,0.609754,2.942115,0.090403,-0.212783,0.226529,0.360751,-0.572666,-0.736146,0.021344,0.015827,-0.003707,1.322266,-28.270704,-37.060181,,,,,,,
1528191377.149031,0.449065,0.613007,2.945129,0.097896,-0.303850,0.143287,0.355078,-0.575329,-0.736827,-0.038947,0.022259,-0.015203,0.992722,-28.324793,-37.007172,,,,,,,
1528191377.169184,0.451553,0.613012,2.944791,-0.174940,0.251822,-0.130509,0.356910,-0.575333,-0.735938,-0.146216,0.007538,0.215141,0.791580,-28.333069,-37.108948,,,,,,,
1528191377.189337,0.449542,0.603739,2.944551,-0.400823,-0.198228,-0.191538,0.357732,-0.567724,-0.741428,0.059337,-0.127009,0.010960,0.976074,-28.086885,-37.232849,,,,,,,
1528191377.209490,0.445813,0.597643,2.944014,-0.217836,-0.267567,-0.126166,0.356450,-0.562695,-0.745866,0.015407,0.007993,0.006699,0.941879,-27.778446,-37.538269,,,,,,,
1528191377.229643,0.435757,0.596270,2.944961,0.025441,-0.596968,0.098427,0.349258,-0.561560,-0.750112,0.046647,-0.008111,-0.051616,0.444336,-27.772636,-37.668457,,,,,,,
1528191377.249795,0.416354,0.600937,2.947152,0.247535,-1.111057,0.192780,0.333575,-0.565416,-0.754342,-0.013430,-0.027404,-0.071967,-0.299210,-27.835056,-37.423798,,,,,,,
1528191377.269948,0.386994,0.608590,2.946086,0.417140,-1.710257,0.030854,0.309645,-0.571711,-0.759779,-0.038252,-0.005422,-0.034303,-1.459320,-28.107412,-37.303040,,,,,,,
1528191377.290101,0.350732,0.613210,2.938447,0.238224,-2.204935,-0.304503,0.280986,-0.575496,-0.768017,-0.057093,0.021968,0.049343,-2.930588,-28.817657,-37.076172,,,,,,,
1528191377.310254,0.308059,0.613513,2.928972,0.090309,-2.469146,-0.397520,0.247913,-0.575743,-0.779139,-0.013859,0.013198,0.051767,-4.346085,-28.693796,-36.728302,,,,,,,
1528191377.330407,0.267860,0.611603,2.919730,-0.037557,-1.985513,-0.334802,0.216691,-0.574181,-0.789532,0.077254,-0.039940,0.101665,-6.004105,-28.883358,-36.328400,,,,,,,
1528191377.350560,0.243221,0.608316,2.916375,-0.173641,-0.925705,-0.066166,0.197628,-0.571486,-0.796458,0.059391,-0.036042,0.044245,-6.817245,-28.960991,-36.163574,,,,,,,
1528191377.370713,0.233007,0.604189,2.918780,-0.241308,-0.216039,0.087322,0.190025,-0.568094,-0.800723,-0.013405,0.018915,-0.045926,-7.412460,-28.642998,-36.330505,,,,,,,
1528191377.390865,0.226642,0.601465,2.921786,-0.083598,-0.283009,0.085403,0.185272,-0.565851,-0.803421,0.028320,-0.022940,-0.186096,-7.803833,-28.703377,-36.367950,,,,,,,
1528191377.411018,0.217630,0.601788,2.926753,-0.026578,-0.333453,0.318237,0.177985,-0.566118,-0.804879,0.103753,0.046037,-0.112723,-8.071564,-28.713593,-36.427948,,,,,,,
1528191377.431171,0.199764,0.602678,2.941167,-0.139149,-0.588333,0.745218,0.163477,-0.566851,-0.807437,0.012090,-0.031721,-0.038892,-8.472122,-28.347721,-36.350769,,,,,,,
1528191377.451324,0.170175,0.600011,2.962952,-0.392469,-0.990810,0.825067,0.139773,-0.564651,-0.813407,-0.053027,0.002945,-0.000665,-9.440262,-28.174988,-36.424835,,,,,,,
1528191377.471477,0.142800,0.591084,2.977240,-0.601915,-0.877138,0.286683,0.118170,-0.557261,-0.821885,-0.010962,-0.003805,0.063050,-10.434418,-27.649937,-36.758240,,,,,,,
1528191377.491630,0.124980,0.578008,2.978715,-0.658793,-0.878341,-0.162880,0.104405,-0.546357,-0.831019,-0.048314,-0.032287,0.023585,-11.237000,-27.178585,-36.662140,,,,,,,
1528191377.511783,0.107467,0.563936,2.976094,-0.708184,-0.934682,-0.151185,0.090651,-0.534517,-0.840281,-0.004729,-0.018858,0.008998,-11.778091,-26.830484,-36.883240,,,,,,,
1528191377.531935,0.087072,0.548679,2.978504,-0.799107,-0.969132,0.162604,0.074197,-0.521561,-0.849981,0.023429,-0.019607,-0.003611,-12.381058,-26.236490,-37.016052,,,,,,,
1528191377.552088,0.063220,0.530253,2.989321,-1.067679,-0.860435,0.513504,0.054503,-0.505752,-0.860955,0.006075,-0.010911,0.077874,-13.452408,-25.390467,-37.125122,,,,,,,
1528191377.572241,0.036505,0.504472,3.004890,-1.448348,-1.052732,0.634783,0.031950,-0.483345,-0.874846,-0.003462,0.027123,0.025191,-14.186951,-24.546970,-37.445618,,,,,,,
1528191377.592394,0.003482,0.472962,3.018680,-1.608831,-1.446217,0.535384,0.003100,-0.455525,-0.890217,0.012586,0.077641,-0.030315,-15.554047,-23.444719,-37.971069,,,,,,,
1528191377.612547,-0.034367,0.444130,3.031765,-1.248927,-1.620525,0.676806,-0.031026,-0.429672,-0.902451,-0.026087,-0.003464,-0.046416,-16.836990,-22.389336,-38.300049,,,,,,,
1528191377.632700,-0.070228,0.425738,3.048505,-0.642809,-1.244418,0.863250,-0.063906,-0.412993,-0.908489,-0.024702,-0.011155,0.023647,-18.594391,-21.035959,-38.211578,,,,,,,
1528191377.652853,-0.095434,0.417042,3.067750,-0.237037,-0.619887,0.909526,-0.087122,-0.405058,-0.910130,0.025217,0.001066,0.066792,-20.036896,-20.276049,-37.998627,,,,,,,
1528191377.673005,-0.113694,0.411507,3.087866,-0.172896,-0.575663,0.965115,-0.103978,-0.399991,-0.910602,-0.012690,0.010693,-0.007581,-20.812378,-19.776072,-38.128540,,,,,,,
1528191377.693157,-0.140348,0.404436,3.107605,-0.256331,-1.160621,0.900014,-0.128602,-0.393500,-0.910285,-0.074386,0.028815,0.011329,-21.719025,-19.152884,-37.909210,,,,,,,
1528191377.713310,-0.176002,0.398202,3.123809,-0.125821,-1.537948,0.696349,-0.161395,-0.387761,-0.907520,-0.060727,-0.061366,0.079868,-22.874405,-18.775387,-37.611694,,,,,,,
1528191377.733463,-0.209143,0.395994,3.134733,0.039194,-1.371730,0.390096,-0.191555,-0.385726,-0.902509,-0.017552,-0.064744,0.075314,-24.173431,-18.248966,-36.931366,,,,,,,
1528191377.753616,-0.236997,0.396679,3.138700,0.092137,-1.234952,0.035671,-0.216553,-0.386358,-0.896567,-0.020294,-0.047083,-0.002695,-25.580215,-18.134924,-36.038513,,,,,,,
1528191377.773769,-0.255260,0.399891,3.134571,0.111968,-0.822249,-0.394675,-0.232576,-0.389318,-0.891257,-0.055083,0.055242,-0.050180,-26.484360,-18.323879,-35.424011,,,,,,,
1528191377.793922,-0.265427,0.404930,3.123115,0.102821,-0.671381,-0.626404,-0.241107,-0.393955,-0.886942,-0.026562,0.037021,-0.079962,-26.686661,-18.553667,-34.611694,,,,,,,
1528191377.814075,-0.274898,0.409997,3.111535,0.107110,-0.716112,-0.512148,-0.248951,-0.398606,-0.882686,-0.012477,-0.010329,-0.088703,-27.109314,-18.683170,-34.348511,,,,,,,
1528191377.834227,-0.285926,0.414785,3.103709,0.148716,-0.681167,-0.354091,-0.258129,-0.402993,-0.878046,0.029324,0.015664,-0.051870,-27.373398,-19.176256,-33.596558,,,,,,,
1528191377.854380,-0.295164,0.420011,3.097599,0.179898,-0.500080,-0.348756,-0.265613,-0.407770,-0.873597,0.065174,-0.015722,0.013795,-27.605545,-19.283703,-32.961700,,,,,,,
1528191377.874533,-0.300794,0.425786,3.090539,0.174948,-0.403931,-0.409639,-0.269825,-0.413037,-0.869824,0.066639,-0.025913,0.033383,-27.659744,-19.434252,-32.402283,,,,,,,
1528191377.894686,-0.305243,0.431553,3.082048,0.154679,-0.369219,-0.478001,-0.272972,-0.418282,-0.866329,0.063407,0.013359,0.048259,-27.631439,-19.993105,-32.110016,,,,,,,
1528191377.914839,-0.306266,0.436390,3.073098,0.079797,-0.218148,-0.406603,-0.273244,-0.422671,-0.864110,0.026922,0.019824,0.010655,-27.899261,-20.060339,-31.700897,,,,,,,
1528191377.934992,-0.309406,0.439378,3.069073,0.107084,-0.184114,-0.088410,-0.275571,-0.425376,-0.862041,0.038876,-0.010964,0.020000,-27.665802,-20.341595,-31.405426,,,,,,,
1528191377.955145,-0.308390,0.442101,3.072376,0.214951,0.319003,0.205215,-0.274343,-0.427839,-0.861214,0.044179,-0.045214,0.047264,-27.664932,-20.544798,-31.168335,,,,,,,
1528191377.975297,-0.299668,0.444459,3.080338,0.203145,0.737190,0.341760,-0.266522,-0.429969,-0.862607,0.027508,-0.040597,0.033735,-27.679993,-20.623919,-31.206360,,,,,,,
1528191377.995450,-0.286589,0.445987,3.087058,0.138512,0.777451,0.194330,-0.255031,-0.431348,-0.865388,-0.024846,0.001325,0.000871,-26.983688,-20.387625,-31.530762,,,,,,,
1528191378.015603,-0.275989,0.448056,3.088516,0.114315,0.393100,-0.065043,-0.245601,-0.433214,-0.867182,-0.083760,0.043505,-0.027944,-26.735367,-20.372019,-31.737457,,,,,,,
1528191378.035756,-0.270019,0.451763,3.085220,0.157411,0.157258,-0.231491,-0.239989,-0.436552,-0.867079,-0.032091,-0.020845,0.014784,-26.447128,-20.630224,-32.163818,,,,,,,
1528191378.055909,-0.265860,0.457199,3.082789,0.281807,0.202522,-0.105362,-0.235754,-0.441436,-0.865767,0.020132,-0.078095,0.040343,-26.030502,-20.728334,-31.903534,,,,,,,
1528191378.076062,-0.260251,0.463761,3.085954,0.383980,0.426923,0.136001,-0.230143,-0.447315,-0.864258,-0.060384,-0.012112,0.005967,-25.271683,-20.906193,-32.055908,,,,,,,
1528191378.096215,-0.252322,0.470564,3.091802,0.392783,0.613204,0.154118,-0.222519,-0.453389,-0.863089,-0.125046,0.011907,-0.034830,-24.914780,-21.118301,-32.125427,,,,,,,
1528191378.116367,-0.237733,0.477478,3.096227,0.372661,0.971030,0.085682,-0.209161,-0.459541,-0.863176,-0.131385,0.024558,-0.069304,-24.175140,-21.259808,-32.492706,,,,,,,
1528191378.136520,-0.217847,0.484556,3.099632,0.391010,1.060657,0.060057,-0.191248,-0.465815,-0.863967,-0.134909,0.022944,-0.084107,-23.605408,-21.564587,-32.694916,,,,,,,
1528191378.156673,-0.199996,0.493219,3.102537,0.490308,0.900970,0.013241,-0.174987,-0.473464,-0.863256,-0.083161,-0.034181,-0.058451,-22.911911,-21.715216,-32.802246,,,,,,,
1528191378.176826,-0.183599,0.504339,3.103696,0.573033,0.833076,-0.097676,-0.159838,-0.483229,-0.860779,-0.028058,-0.006533,-0.039322,-22.217422,-22.142544,-32.925568,,,,,,,
1528191378.196979,-0.169421,0.516160,3.101856,0.540656,0.485725,-0.233225,-0.146645,-0.493544,-0.857268,-0.113335,0.061415,-0.150636,-21.445648,-22.207680,-32.904083,,,,,,,
1528191378.217132,-0.176093,0.530050,3.097388,0.767789,-0.940543,-0.354322,-0.151145,-0.505577,-0.849439,-0.111718,0.037010,-0.218142,-21.599075,-22.883099,-32.212402,,,,,,,
1528191378.237285,-0.192056,0.549056,3.091064,0.885521,-0.895168,-0.462016,-0.162822,-0.521882,-0.837333,0.071742,0.057115,-0.048622,-21.752411,-23.629499,-31.319061,,,,,,,
1528191378.257438,-0.208158,0.564414,3.085866,0.556365,-0.947536,-0.269167,-0.174605,-0.534921,-0.826663,0.146804,0.049981,-0.004895,-21.672516,-23.781919,-30.452118,,,,,,,
1528191378.277590,-0.223684,0.570611,3.086270,0.164680,-0.616637,0.093265,-0.186680,-0.540146,-0.820605,0.186253,0.034256,0.055025,-22.255936,-23.823481,-30.004242,,,,,,,
1528191378.297743,-0.238422,0.569013,3.092277,-0.100274,-0.629056,0.335298,-0.198957,-0.538801,-0.818602,0.182752,0.038343,-0.008486,-22.443283,-23.830246,-29.656494,,,,,,,
1528191378.317896,-0.257945,0.565264,3.100770,-0.040679,-0.787485,0.417616,-0.215413,-0.535638,-0.816509,0.062261,0.074106,-0.032230,-22.901566,-23.543694,-29.234802,,,,,,,
1528191378.338049,-0.278701,0.564304,3.110956,0.114808,-0.733891,0.425272,-0.232455,-0.534828,-0.812356,0.032549,0.094840,-0.013815,-23.700043,-23.202160,-28.970856,,,,,,,
1528191378.358202,-0.298889,0.564850,3.121289,0.172922,-0.695719,0.395439,-0.248720,-0.535289,-0.807219,-0.052245,0.091701,-0.051286,-23.934784,-23.178562,-28.637939,,,,,,,
1528191378.378355,-0.313172,0.567160,3.130500,0.261978,-0.313451,0.299376,-0.259842,-0.537239,-0.802406,-0.082886,0.089317,0.000877,-24.459229,-23.008560,-28.167664,,,,,,,
1528191378.398508,-0.320017,0.570339,3.138874,0.231317,0.013818,0.296060,-0.264789,-0.539917,-0.798983,-0.003262,0.056443,0.065371,-24.450638,-23.158009,-27.973999,,,,,,,
1528191378.418660,-0.319779,0.570320,-3.134943,0.065081,0.375130,0.435627,-0.264603,-0.539902,-0.799056,0.057587,-0.033219,0.099028,-24.493683,-23.006760,-28.056976,,,,,,,
1528191378.438813,-0.316591,0.566912,-3.124172,-0.069680,0.471116,0.474942,-0.262625,-0.537030,-0.801639,0.041403,-0.066395,0.101154,-24.437164,-22.570694,-28.548004,,,,,,,
1528191378.458966,-0.312566,0.561639,-3.116023,-0.157046,0.319330,0.367028,-0.260264,-0.532574,-0.805373,0.023997,-0.046817,0.023299,-24.184174,-22.341999,-28.998291,,,,,,,
1528191378.479119,-0.315845,0.559928,-3.109089,0.170441,-0.152092,0.240503,-0.263186,-0.531125,-0.805380,0.017748,-0.106631,-0.103326,-24.179214,-22.073734,-28.797333,,,,,,,
1528191378.499272,-0.328374,0.568037,-3.103347,0.558856,-0.639979,0.030776,-0.271857,-0.537978,-0.797917,0.008765,-0.118760,-0.111141,-24.485077,-22.004332,-28.592133,,,,,,,
1528191378.519425,-0.346014,0.576873,-3.099900,0.371336,-0.785295,0.022031,-0.284266,-0.545405,-0.788495,-0.010152,-0.068028,-0.065814,-24.738846,-22.450052,-27.927002,,,,,,,
1528191378.539578,-0.359107,0.581529,-3.094727,0.273218,-0.324406,0.140310,-0.293670,-0.549302,-0.782319,-0.079362,-0.002791,-0.044860,-25.195892,-22.480228,-27.602234,,,,,,,
1528191378.559730,-0.368296,0.590314,-3.092322,0.615795,-0.515624,-0.210475,-0.299097,-0.556622,-0.775056,-0.180608,0.123745,-0.202651,-25.421112,-22.784660,-27.132629,,,,,,,
1528191378.579883,-0.386670,0.611598,-3.093822,1.131357,-1.268061,-0.568383,-0.308748,-0.574177,-0.758283,-0.097593,0.100788,-0.176775,-25.387024,-23.426121,-26.487366,,,,,,,
1528191378.600036,-0.416685,0.638749,-3.096594,1.169834,-1.619806,-0.613094,-0.324935,-0.596191,-0.734146,0.033691,0.024475,-0.000183,-25.756653,-24.183256,-25.261414,,,,,,,
1528191378.620189,-0.445358,0.660918,-3.097703,0.858856,-1.346808,-0.421374,-0.340070,-0.613842,-0.712424,0.093534,0.077740,0.101279,-25.875122,-24.841318,-24.079651,,,,,,,
1528191378.640342,-0.471845,0.677093,-3.096926,0.691324,-1.292344,-0.303085,-0.354259,-0.626530,-0.694232,0.082088,0.104237,0.063327,-26.461578,-25.518076,-22.843170,,,,,,,
1528191378.660495,-0.500770,0.693277,-3.097574,0.723500,-1.607935,-0.471661,-0.369271,-0.639061,-0.674712,0.086785,0.142510,-0.001496,-26.802689,-25.916500,-21.586578,,,,,,,
1528191378.680648,-0.536644,0.712376,-3.099606,0.819171,-1.937677,-0.544062,-0.386922,-0.653634,-0.650424,0.138967,0.098733,0.006732,-27.291763,-26.601059,-20.524292,,,,,,,
1528191378.700801,-0.576091,0.732511,-3.100410,0.827267,-2.001067,-0.565391,-0.405019,-0.668738,-0.623495,0.134771,0.117148,0.058706,-27.749786,-27.151447,-18.994781,,,,,,,
1528191378.720953,-0.617088,0.751279,-3.098243,0.801105,-1.890333,-0.348717,-0.422895,-0.682574,-0.596028,0.293683,0.100008,0.095891,-28.201187,-27.902487,-17.189484,,,,,,,
1528191378.741106,-0.658603,0.764179,-3.089122,0.645089,-1.678765,0.015109,-0.441842,-0.691944,-0.570951,0.304131,0.109150,0.112516,-28.531693,-28.353725,-15.829773,,,,,,,
1528191378.761259,-0.699517,0.770599,-3.076474,0.506197,-1.636199,0.172939,-0.461955,-0.696565,-0.548991,0.235286,0.109636,0.105692,-29.226608,-28.492393,-14.202820,,,,,,,
1528191378.781412,-0.736692,0.771458,-3.063217,0.232170,-1.231606,0.367888,-0.481638,-0.697181,-0.530998,0.177820,0.138893,0.148628,-29.893341,-28.432289,-12.956360,,,,,,,
1528191378.801565,-0.766006,0.765742,-3.052278,-0.040100,-1.008969,0.551129,-0.499749,-0.693072,-0.519517,0.174859,0.100482,0.090852,-30.372345,-28.374807,-12.092834,,,,,,,
1528191378.821718,-0.790626,0.754309,-3.043626,-0.257235,-0.854373,0.622351,-0.517986,-0.684785,-0.512597,0.061153,0.060518,0.008447,-30.997543,-27.797361,-11.556458,,,,,,,
1528191378.841871,-0.809664,0.741880,-3.038645,-0.281418,-0.733391,0.529408,-0.533771,-0.675675,-0.508476,-0.064785,0.015320,-0.127450,-31.812500,-27.455708,-10.988251,,,,,,,
1528191378.862023,-0.826050,0.734475,-3.033856,-0.004725,-0.613175,0.282027,-0.545695,-0.670197,-0.503039,-0.180639,0.017549,-0.226285,-32.118149,-27.207220,-10.327820,,,,,,,
1528191378.882176,-0.839665,0.736915,-3.028821,0.357806,-0.424891,-0.121137,-0.551274,-0.672007,-0.494469,-0.211711,0.021021,-0.276267,-32.761841,-26.888882,-9.806793,,,,,,,
1528191378.902329,-0.853060,0.749891,-3.021021,0.822711,-0.455500,-0.368248,-0.551233,-0.681559,-0.481265,-0.162314,0.012003,-0.288632,-32.719528,-27.142578,-9.428253,,,,,,,
1528191378.922482,-0.877612,0.772724,-3.006374,1.321098,-0.877823,-0.641912,-0.550765,-0.698088,-0.457523,-0.188005,-0.041399,-0.291806,-32.754013,-27.539772,-8.765961,,,,,,,
1528191378.942635,-0.914667,0.805949,-2.987368,1.635483,-1.348222,-0.979861,-0.548649,-0.721488,-0.422416,-0.113842,-0.107659,-0.197976,-32.862457,-28.388126,-7.613037,,,,,,,
1528191378.962788,-0.959942,0.843267,-2.966774,1.641487,-1.482012,-1.133561,-0.544759,-0.746820,-0.381436,-0.067149,-0.122992,-0.063968,-32.479172,-29.473133,-5.888062,,,,,,,
1528191378.982941,-0.999339,0.880017,-2.946471,1.504234,-0.990494,-1.145584,-0.535902,-0.770750,-0.344599,-0.018542,-0.125933,0.054102,-32.094025,-30.304438,-3.978180,,,,,,,
1528191379.003094,-1.035305,0.914609,-2.924091,1.507171,-0.884349,-1.050585,-0.524694,-0.792324,-0.311310,0.064809,-0.148609,0.024887,-31.241028,-31.252974,-2.528870,,,,,,,
1528191379.023246,-1.071784,0.944594,-2.896359,1.360584,-0.622643,-0.791394,-0.514600,-0.810259,-0.280468,0.115293,-0.119535,0.124584,-30.601456,-32.177544,-1.083801,,,,,,,
1528191379.043399,-1.101968,0.968715,-2.873949,0.991630,-0.556916,-0.774791,-0.505244,-0.824158,-0.255903,0.026515,-0.031585,0.158674,-30.187454,-32.768475,-0.016388,,,,,,,
1528191379.063552,-1.122450,0.989617,-2.859588,0.729921,-0.287280,-0.711121,-0.494745,-0.835816,-0.237980,0.030984,-0.019180,0.154271,-29.464554,-33.199932,1.175415,,,,,,,
1528191379.083705,-1.131876,1.006668,-2.848843,0.552802,0.120553,-0.622825,-0.483993,-0.845055,-0.227217,-0.045212,0.009102,0.156706,-29.077225,-33.712612,1.714691,,,,,,,
1528191379.103858,-1.132260,1.025099,-2.848068,0.335279,-0.087571,-1.010612,-0.469897,-0.854766,-0.220379,-0.256635,-0.010804,0.147900,-28.137955,-34.907703,2.370544,,,,,,,
1528191379.124011,-1.119541,1.049196,-2.865106,-0.010742,-0.063788,-1.393273,-0.448387,-0.867023,-0.217290,-0.316323,-0.009915,0.181722,-27.011963,-35.690704,2.245758,,,,,,,
1528191379.144164,-1.086697,1.076119,-2.903381,-0.336925,-0.028403,-1.708653,-0.420192,-0.880122,-0.220951,-0.251683,-0.039739,0.164768,-25.973557,-36.537704,2.268250,,,,,,,
1528191379.164316,-1.036722,1.101562,-2.957247,-0.526047,0.205145,-1.669436,-0.389225,-0.891915,-0.230189,-0.127606,-0.126548,0.187525,-24.600540,-37.264519,1.572540,,,,,,,
1528191379.184469,-0.974302,1.122829,-3.019249,-0.580169,0.399301,-1.577743,-0.358332,-0.901329,-0.243308,-0.018652,-0.041206,0.078696,-23.338745,-38.000423,0.950531,,,,,,,
1528191379.204622,-0.906660,1.140818,-3.081145,-0.458236,0.596462,-1.460190,-0.328245,-0.908975,-0.256935,-0.001635,0.044274,0.041191,-22.297379,-38.561897,0.219696,,,,,,,
1528191379.224775,-0.857048,1.162014,-3.138831,-0.060757,-0.644436,-1.629156,-0.300465,-0.917606,-0.260223,-0.012477,-0.028439,-0.044556,-20.844086,-39.193756,-0.020782,,,,,,,
1528191379.244928,-0.830107,1.190416,3.086665,0.171212,-1.526119,-1.874217,-0.273996,-0.928524,-0.250530,-0.084997,-0.009678,0.039684,-19.623871,-39.963020,0.582092,,,,,,,
1528191379.265081,-0.786668,1.221980,3.010893,0.045068,-1.206367,-2.189410,-0.241980,-0.939778,-0.241367,-0.157556,0.002110,0.128391,-18.002640,-40.569599,1.300751,,,,,,,
1528191379.285234,-0.705252,1.253290,2.903531,-0.132629,-0.876955,-2.346658,-0.202370,-0.950017,-0.237717,-0.093406,-0.035625,0.192261,-15.806107,-41.377045,1.594330,,,,,,,
1528191379.305387,-0.589952,1.273511,2.764833,-0.659637,-0.876496,-2.167956,-0.162956,-0.956135,-0.243405,-0.035011,-0.008876,0.158627,-13.719116,-42.227589,1.395172,,,,,,,
1528191379.325539,-0.464840,1.278432,2.614677,-0.968712,-0.938725,-1.921697,-0.129198,-0.957565,-0.257628,-0.018736,-0.024292,0.080199,-11.986969,-42.448227,1.032288,,,,,,,
1528191379.345692,-0.342576,1.273582,2.463511,-1.131103,-1.165835,-1.915444,-0.098373,-0.956156,-0.275834,-0.084427,0.051249,-0.014617,-10.381653,-43.018764,0.288940,,,,,,,
1528191379.365845,-0.215320,1.261932,2.311233,-1.192551,-0.672094,-2.068313,-0.064946,-0.952679,-0.296951,-0.029094,0.117627,-0.010879,-8.815033,-43.203789,-0.453308,,,,,,,
1528191379.385998,-0.084360,1.244060,2.166650,-1.200603,-0.159553,-2.052431,-0.027043,-0.947095,-0.319807,0.120488,0.158780,-0.033389,-6.975174,-43.460640,-1.491089,,,,,,,
1528191379.406151,0.024604,1.223085,2.044157,-1.011789,-0.536189,-1.914372,0.008383,-0.940155,-0.340639,0.180322,0.150116,-0.079207,-5.142487,-43.450615,-2.470795,,,,,,,
1528191379.426304,0.101488,1.202568,1.944944,-0.869308,-0.847518,-1.750765,0.036469,-0.932967,-0.358106,0.155746,0.161238,-0.033984,-3.534286,-43.494137,-3.232452,,,,,,,
1528191379.446457,0.168513,1.179912,1.857466,-0.943987,-0.590677,-1.721028,0.063900,-0.924573,-0.375605,0.143848,0.182507,0.041834,-2.248245,-43.697495,-4.123047,,,,,,,
1528191379.466610,0.222461,1.152485,1.789433,-1.143204,-0.390871,-1.419176,0.089623,-0.913776,-0.396204,0.172569,0.247318,0.086908,-0.981461,-43.632446,-4.738129,,,,,,,
1528191379.486762,0.245995,1.122330,1.747488,-1.315491,-0.923476,-1.082948,0.105586,-0.901113,-0.420528,0.282750,0.276220,0.038844,0.257446,-43.553917,-5.838531,,,,,,,
1528191379.506915,0.248802,1.091724,1.722419,-1.316819,-0.985151,-0.824565,0.113506,-0.887423,-0.446759,0.225071,0.181414,0.011274,0.849319,-43.074409,-6.986298,,,,,,,
1528191379.527068,0.247628,1.064993,1.705653,-1.078794,-0.620638,-0.663134,0.118755,-0.874786,-0.469728,0.066425,-0.015214,-0.052260,1.576965,-42.941040,-8.153809,,,,,,,
1528191379.547221,0.250854,1.044102,1.687545,-0.811629,-0.569322,-0.720468,0.124780,-0.864474,-0.486942,0.003623,0.005663,-0.001400,1.840027,-42.659424,-8.805908,,,,,,,
1528191379.567374,0.262685,1.024323,1.665937,-0.844035,-0.144769,-0.793210,0.134946,-0.854362,-0.501848,0.002917,0.067314,0.046786,2.372009,-42.272789,-9.532227,,,,,,,
1528191379.587527,0.281350,1.003242,1.648168,-0.889898,0.298226,-0.699419,0.149258,-0.843218,-0.516433,-0.039043,0.047885,-0.087815,2.847412,-42.035831,-10.140961,,,,,,,
,,,,,,,,,,,,,,,,52.333510,4.864647,-0.747420,-1.000000,-1.000000,1528191379.560630,
1528191379.607680,0.300416,0.983144,1.633685,-0.780044,0.326441,-0.622408,0.164059,-0.832244,-0.529577,-0.141491,-0.043976,-0.185297,3.387115,-41.809372,-10.781311,,,,,,,
1528191379.627832,0.320776,0.967811,1.616124,-0.429660,0.249435,-0.768223,0.178809,-0.823646,-0.538175,-0.180548,-0.092369,-0.220523,4.165695,-41.711727,-11.227539,,,,,,,
1528191379.647985,0.338866,0.958789,1.590259,-0.043561,-0.480261,-0.874331,0.190978,-0.818496,-0.541839,-0.164092,-0.053727,-0.225739,4.810028,-41.659279,-11.527039,,,,,,,
1528191379.668138,0.348871,0.956564,1.553545,0.451836,-1.144873,-1.159687,0.197011,-0.817216,-0.541611,-0.098790,0.002107,-0.189193,5.373077,-41.627804,-11.601257,,,,,,,
1528191379.688291,0.371912,0.961509,1.497636,1.000062,-1.214607,-1.457934,0.207966,-0.820056,-0.533157,-0.028507,0.130084,-0.213196,6.222794,-41.654049,-11.157959,,,,,,,
1528191379.708445,0.392689,0.974712,1.434416,1.392234,-1.751359,-1.380440,0.214835,-0.827540,-0.518673,0.038324,0.206675,-0.159352,6.805038,-41.574554,-10.533386,,,,,,,
1528191379.728598,0.410238,0.989254,1.368075,1.299812,-1.833401,-1.442461,0.219081,-0.835617,-0.503733,0.029042,0.247375,0.034678,7.962646,-42.028347,-9.623871,,,,,,,
1528191379.748751,0.436776,0.996715,1.298903,0.984489,-1.310803,-1.613799,0.229726,-0.839692,-0.492079,-0.006826,0.304947,0.133574,8.973663,-42.036640,-8.986877,,,,,,,
1528191379.768904,0.473322,0.993692,1.229308,0.511552,-1.057104,-1.817317,0.248708,-0.838046,-0.485614,-0.034323,0.266452,0.168964,9.718826,-42.038372,-8.108795,,,,,,,
1528191379.789056,0.506897,0.981436,1.168419,0.072900,-0.629584,-1.650344,0.269836,-0.831296,-0.485935,0.287689,0.158720,0.238697,11.030136,-41.932110,-8.114258,,,,,,,
1528191379.809209,0.531309,0.964001,1.140486,-0.628315,0.445769,-0.626523,0.288917,-0.821480,-0.491626,0.538841,-0.057533,-0.056698,12.397079,-41.370792,-8.134399,,,,,,,
1528191379.829362,0.521555,0.955836,1.165614,-0.677840,0.516726,0.996250,0.287441,-0.816796,-0.500221,0.462101,0.416680,-0.177208,13.013351,-41.251278,-8.456696,,,,,,,
1528191379.849515,0.481468,0.964315,1.224761,-0.246036,0.195267,1.962034,0.263947,-0.821659,-0.505182,0.234039,0.797016,-0.140128,12.150696,-41.277733,-8.768036,,,,,,,
1528191379.869668,0.428299,0.982777,1.289696,0.113765,-0.152899,1.984992,0.230386,-0.832041,-0.504608,0.029639,0.726114,-0.061386,10.873978,-41.971951,-8.945068,,,,,,,
1528191379.889821,0.367475,0.998862,1.355360,-0.052098,-0.240051,1.999757,0.194453,-0.840855,-0.505123,0.020070,0.708104,0.102352,9.259476,-42.140614,-8.702240,,,,,,,
1528191379.909974,0.293988,1.010202,1.444647,-0.343262,0.257440,2.947353,0.154068,-0.846939,-0.508877,0.121902,0.016785,0.002926,7.330338,-42.335789,-8.744751,,,,,,,
1528191379.930126,0.159834,1.053906,1.608217,1.157130,-1.068465,3.930732,0.078651,-0.869360,-0.487880,-0.040092,-2.163157,-0.827519,4.543259,-42.943478,-8.029419,,,,,,,
1528191379.950279,0.075806,1.076637,1.693843,0.110513,-0.260513,1.345482,0.035920,-0.880368,-0.472928,-0.739960,0.318829,1.264890,1.512924,-43.119450,-6.925781,,,,,,,
1528191379.970432,0.060394,1.059896,1.698586,-0.939137,-0.705218,-0.611687,0.029512,-0.872305,-0.488070,-0.755785,-0.256922,0.156756,0.001938,-43.303177,-6.785187,,,,,,,
1528191379.990585,0.096042,1.033954,1.634774,-1.393247,-0.859117,-2.147528,0.049043,-0.859328,-0.509067,-0.604676,-0.636705,0.223026,0.084778,-43.023579,-7.397644,,,,,,,
1528191380.010738,0.147144,0.990062,1.565173,-2.289819,-0.298905,-1.888277,0.080438,-0.836060,-0.542709,-0.191857,-0.712326,-0.111481,1.761887,-42.735718,-8.400726,,,,,,,
1528191380.030891,0.174087,0.938633,1.535330,-2.342733,0.465692,-0.893459,0.102348,-0.806751,-0.581960,0.052666,-0.239101,-0.014735,3.285309,-42.187336,-10.091003,,,,,,,
1528191380.051044,0.189385,0.892942,1.529105,-2.079620,0.435784,-0.456447,0.118059,-0.778920,-0.615910,0.031523,-0.175120,-0.261287,4.359421,-41.306931,-12.246460,,,,,,,
1528191380.071197,0.198770,0.856770,1.527293,-1.537094,0.405244,-0.426928,0.129315,-0.755731,-0.641987,-0.108319,-0.078741,-0.169567,4.851532,-40.693687,-14.061005,,,,,,,
1528191380.091349,0.211691,0.830873,1.518034,-0.990035,0.193816,-0.610903,0.141665,-0.738520,-0.659180,-0.094653,0.064891,-0.153930,5.589035,-40.338394,-15.405701,,,,,,,
1528191380.111502,0.221823,0.816038,1.505409,-0.402620,-0.003732,-0.521501,0.150730,-0.728437,-0.668326,-0.019184,0.043577,-0.172678,6.032654,-39.682755,-16.343842,,,,,,,
1528191380.131655,0.230345,0.811799,1.494023,0.010496,0.029003,-0.371516,0.157124,-0.725526,-0.670017,-0.046727,0.048753,-0.137401,6.965683,-39.621681,-17.050995,,,,,,,
1528191380.151808,0.241152,0.812249,1.483021,0.146232,0.268874,-0.375677,0.164277,-0.725836,-0.667963,-0.072542,0.091360,-0.018591,7.398880,-39.416405,-16.987396,,,,,,,
1528191380.171961,0.259887,0.812730,1.469172,0.121399,0.466435,-0.489991,0.176672,-0.726167,-0.664431,-0.079550,0.115434,0.036364,7.661728,-39.496117,-16.998810,,,,,,,
1528191380.192114,0.280318,0.811553,1.452736,0.081968,0.411892,-0.606407,0.190446,-0.725357,-0.661504,-0.069444,0.128784,0.053411,8.332260,-39.042236,-16.813354,,,,,,,
1528191380.212267,0.303851,0.807834,1.431197,-0.012196,0.357795,-0.864883,0.206764,-0.722792,-0.659409,-0.090493,0.187804,0.092988,8.989944,-39.007240,-16.987885,,,,,,,
1528191380.232420,0.328018,0.799123,1.403132,-0.159441,0.084834,-1.137261,0.224659,-0.716745,-0.660155,0.012463,0.300211,0.079360,9.873169,-38.868496,-16.880615,,,,,,,
1528191380.252572,0.346690,0.787345,1.373596,-0.227483,-0.240796,-1.139405,0.239797,-0.708482,-0.663740,0.174723,0.366304,0.019666,10.602814,-38.646729,-17.062042,,,,,,,
1528191380.272725,0.356097,0.777775,1.349869,-0.093470,-0.403585,-0.761245,0.248383,-0.701696,-0.667779,0.307541,0.405553,0.006570,11.175934,-38.304359,-17.283112,,,,,,,
1528191380.292878,0.353429,0.776220,1.342134,0.058659,-0.375566,0.016202,0.246977,-0.700587,-0.669462,0.343004,0.552180,0.021940,11.277435,-38.353539,-17.571564,,,,,,,
1528191380.313031,0.340268,0.779192,1.354513,-0.077054,-0.070861,0.716349,0.237450,-0.702705,-0.670689,0.306343,0.782753,0.098560,10.842148,-38.445602,-17.495514,,,,,,,
1528191380.333184,0.320767,0.784411,1.384728,-0.034223,0.135254,1.303567,0.223166,-0.706409,-0.671702,0.272714,1.038913,-0.144399,10.289749,-38.480316,-17.627441,,,,,,,
1528191380.353337,0.295337,0.804970,1.426879,0.977916,0.282814,1.961417,0.201745,-0.720810,-0.663123,0.353263,1.089584,-0.388086,8.965912,-39.036518,-17.225067,,,,,,,
1528191380.373490,0.260975,0.854058,1.481039,2.309814,0.241928,2.744629,0.169503,-0.753953,-0.634685,0.328193,1.052552,-0.336415,7.516678,-39.972752,-15.869232,,,,,,,
1528191380.393643,0.199510,0.921723,1.564238,2.742864,0.173192,3.577964,0.119795,-0.796644,-0.592458,0.066591,0.704664,-0.047495,5.031860,-41.472267,-13.343872,,,,,,,
1528191380.413795,0.103420,1.009709,1.694232,3.131526,0.971265,3.167218,0.054933,-0.846677,-0.529264,-0.846803,-1.057300,0.895429,1.615952,-42.450222,-10.092560,,,,,,,
1528191380.433948,0.060505,1.001644,1.719722,-1.675386,-2.217926,-0.255662,0.032587,-0.842358,-0.537932,-0.739542,-1.607181,0.428435,0.302643,-42.654148,-9.722046,,,,,,,
1528191380.454101,0.068853,0.954621,1.696746,-2.479611,0.419670,-1.094343,0.039760,-0.816095,-0.576549,-0.422313,-0.117072,0.416728,0.671265,-42.080338,-11.406433,,,,,,,
1528191380.474254,0.104979,0.899759,1.660419,-2.924557,-0.006066,-1.093731,0.065156,-0.783177,-0.618376,-0.131089,-0.576946,-0.097292,1.933044,-41.246330,-13.447021,,,,,,,
1528191380.494407,0.110172,0.842936,1.654736,-2.303013,0.333727,-0.330722,0.073146,-0.746600,-0.661240,-0.098796,-0.274229,-0.265441,2.488693,-40.557617,-15.530640,,,,,,,
1528191380.514560,0.123280,0.814657,1.648943,-0.917778,0.227637,-0.411167,0.084370,-0.727490,-0.680911,-0.027577,-0.157001,-0.522962,2.916168,-39.788628,-17.200623,,,,,,,
1528191380.534713,0.134795,0.806310,1.631539,-0.028571,-0.071341,-0.791134,0.093018,-0.721738,-0.685888,-0.171067,-0.114749,-0.286082,3.134933,-39.730030,-17.515900,,,,,,,
1528191380.554866,0.154868,0.808269,1.602550,0.337336,-0.059239,-1.071474,0.106548,-0.723092,-0.682484,-0.144772,-0.063544,-0.140483,3.869385,-39.583908,-17.526672,,,,,,,
1528191380.575018,0.178293,0.811114,1.566194,0.311509,-0.184468,-1.249781,0.122140,-0.725055,-0.677774,-0.056344,-0.009351,-0.049033,4.712814,-39.523201,-17.365265,,,,,,,
1528191380.595171,0.200888,0.810345,1.531038,0.105247,-0.078571,-1.120870,0.137532,-0.724525,-0.675388,-0.005162,-0.024407,0.028781,5.580475,-39.421856,-17.231110,,,,,,,
1528191380.615324,0.222171,0.805541,1.502495,-0.116543,0.082992,-0.945025,0.152640,-0.721205,-0.675695,-0.010184,-0.005083,0.080282,6.359421,-39.397514,-17.270538,,,,,,,
1528191380.635477,0.240064,0.795918,1.479595,-0.373418,0.054154,-0.851391,0.166347,-0.714506,-0.679566,-0.031521,0.062513,0.079499,7.285553,-39.297443,-17.463959,,,,,,,
